VP_Code;fpt_rt;word;emotionality;trials_fp.thisIndex;group;sort;features;mean_LDT_corr;matching_accuracy
BK11DF;53.97149;Mölauzegt;neu;21;Control;BK11DF_Mölauzegt;Informationen suchen+Entscheidung +schlau+Frustration+abwarten,;1;1
BK11DF;51.186985;Zimerhubst;emo;2;Control;BK11DF_Zimerhubst;Mühe+Freude+Befriedigung +Sinn,;1;1
BK11DF;49.22531;Rugliebast;emo;9;Control;BK11DF_Rugliebast;dreist+Wut+Unsicherheit +Einmischen+aufdringlich;1;1
BK11DF;53.21331;Bisknirgo;emo;28;Control;BK11DF_Bisknirgo;Mitgefühl+Inspiration+sozial+Gesellschaft,;1;1
BK11DF;87.329455;Wumeizauch;emo;10;Control;BK11DF_Wumeizauch;Nervosität+Tagtraum+Hoffnung +Inspiration+wärme+Freude+verwirrtchdenklich,;1;1
BK11DF;62.49362;Zwelde;emo;3;Control;BK11DF_Zwelde;weinen+Wut+ Freude+überreagieren+Laune ,;1;1
BK11DF;87.675805;Iberletsch;neu;23;Control;BK11DF_Iberletsch;ungeduldig+frustriert ch Worten ringen ,;0.666666667;1
BK11DF;83.79636;Mege;emo;15;Control;BK11DF_Mege;Zuverlässigkeit+Sicherheit+Professionell+Aufgaben aufteilen+Erleichterung +Entspannung;1;1
BK11DF;70.859475;Struk;neu;20;Control;BK11DF_Struk;Nähe +Geborgenheit +Familie+Aufwachsen +Bindung +Verbindung+Kontakt,;1;1
BK11DF;58.650525;Herklögen;emo;4;Control;BK11DF_Herklögen;Üben+müde+Anstrengend +lernen+Austausch+Kontakt+neue Kultur+gestikulieren+verständigen+Übersetzen,;1;1
BK11DF;78.095995;Plüpp;neu;17;Control;BK11DF_Plüpp;Empathie+Sozialleben+Freunde,;1;1
BK11DF;48.96699;Häugnung;neu;11;Control;BK11DF_Häugnung;Überraschung +unverhofft+Freude,;1;1
BK11DF;56.82382;Skibt;neu;18;Control;BK11DF_Skibt;Angst+nervosität+Trauer+Einsamkeit+müde+Bett+liegencht+Stress,;1;1
BK11DF;54.695115;Troff;neu;24;Control;BK11DF_Troff;gespannt+aufgeregt+Zug+Packen+Vorfreude+warten+Urlaub+nervös+Stress,;1;1
BK11DF;62.852465;Vul;neu;0;Control;BK11DF_Vul;Bewertung+Selbstbild+Kritik+positiv+negativ+Harsch,;1;1
BK11DF;80.463675;Preier;emo;5;Control;BK11DF_Preier;Übung+Gedult+Lernen+Perfektionismus+Hobby+Fähigkeit,;1;1
BK11DF;56.24988;Ismiprämpf;emo;7;Control;BK11DF_Ismiprämpf;Nähe+Ungedult+Liebe+Beziehung +Intimität+Berührung;1;1
BK11DF;61.605535;Wunicher;emo;27;Control;BK11DF_Wunicher;Verantwortung+Erwachsen+Wahl+Überlegen+vorausschauen+Konsequenzen,;1;1
BK11DF;51.5965;Odef;neu;25;Control;BK11DF_Odef;Zufriedenheit+Stolz+Ziel+Selbstbewusstsein+Freude+harte Arbeit +neues;0.666666667;1
BK11DF;63.41931;Ferandsor;neu;29;Control;BK11DF_Ferandsor;reden+Fremde+Initiative,;1;1
BK11DF;57.644055;Bismirbiel;emo;13;Control;BK11DF_Bismirbiel;bequem+Unsicherheit +genervt +Wütend+Straße+Ausweichen ,;1;1
BK11DF;72.175725;Faube;neu;26;Control;BK11DF_Faube;zuhause+urlaub+draußen+ruhig+Geborgenheit+Selfcare ,;1;1
BK11DF;43.75592;Namistell;neu;19;Control;BK11DF_Namistell;Einzelgänger+Ruhe+andern aus dem Weg gehen+wenig reden+Zimmer+weggehen,;1;1
BK11DF;58.482125;Neif;emo;1;Control;BK11DF_Neif;schön+müde+morgens+Bett+gute Laune,;1;0
BK11DF;58.01769;Wupforau;emo;12;Control;BK11DF_Wupforau;Liebe+Nähe+Geborgenheit+Innere Ruhe+Zufriedenheit+Glück,;1;1
BK11DF;67.28182;Muschürdur;emo;6;Control;BK11DF_Muschürdur;Beziehung +Freundschaften+einsam+zurückhaltend ,;1;1
BK11DF;64.860435;Enkmitas;emo;14;Control;BK11DF_Enkmitas;Leere+Unsicherheit +Verzweiflung +Angst+weinen,;1;1
BK11DF;60.07857;Bingsemöl;neu;22;Control;BK11DF_Bingsemöl;Freunde+Begegnung+zuhause+Verabredung +Vorfreude+warten+ungeduldig,;1;1
BK11DF;63.034975;Weforshank;neu;16;Control;BK11DF_Weforshank;Unsicherheit+Faulheit+Kontaktvermeidung +genervt+laute Klingel+warten+gespannt;1;1
BK11DF;50.779235;Glühm;neu;8;Control;BK11DF_Glühm;nervös+Vorstellungsgespräch+wichtig+Angst+üben+vorbereiten +besser werden+guter Eindruck;1;1
Dn20Df;61.975195;Bismirbiel;emo;13;Control;Dn20Df_Bismirbiel;Nachdenken+Unzufrieden+Lernen+Unwissen+Informationen+Fehler+Unterbrechung+Problemlösen+Versagen;0.666666667;1
Dn20Df;69.97224;Ismiprämpf;emo;7;Control;Dn20Df_Ismiprämpf;Eifer+Freude+Erfüllung+Herz+Anstrengung+in etwas aufgehen+sich verlieren,;1;1
Dn20Df;77.895675;Bingsemöl;neu;22;Control;Dn20Df_Bingsemöl;Ärger+Genervt sein +andere Menschen+unangenehm+nervige Person+alles besser wissen +sich profilieren +Ratschlag +Ungewollt;1;1
Dn20Df;89.81392;Preier;emo;5;Control;Dn20Df_Preier;Blicke +Beobachtung +Seltsam +Stalking +Film gucken +Influencer +sich etwas abschauen +Neid ,;0.666666667;1
Dn20Df;57.501655;Plüpp;neu;17;Control;Dn20Df_Plüpp;Frau+Mann +Liebe +Kennenlernen+Attraktiviät +Besonders +Verliebtsein +Schön +Liebe auf den ersten Blick +Film +Kribbeln+Schmetterlinge im Bauch ,;1;1
Dn20Df;67.325395;Iberletsch;neu;23;Control;Dn20Df_Iberletsch;unnötig +ausrasten+Reaktion+unwichtig +heftig +schreien+weinen +Ärger +Gefühle +Emotion geht durch +verletzen;1;1
Dn20Df;89.788555;Muschürdur;emo;6;Control;Dn20Df_Muschürdur;Ärger +Anspannung +Wörter +Gedanken +man kann an nichts anderes denken+stammeln +Unsicherheit +Wut +Enttäuschung +aufregen,;1;1
Dn20Df;79.42295;Wunicher;emo;27;Control;Dn20Df_Wunicher;Dankbarkeit+keine Sorgen mehr +Vertrauen+Respekt +Gewissenhaftigkeit +Für einander da sein+Unterstützung,;1;1
Dn20Df;75.746125;Skibt;neu;18;Control;Dn20Df_Skibt;Famile +Bindung +Eltern +geborgen+Zufriedenheit +Liebe +Hilfe +Berührung+bedingungslos +Zuneigung +Vertrauen,;1;1
Dn20Df;65.78495;Bisknirgo;emo;28;Control;Dn20Df_Bisknirgo;Deutsch+Englisch +Spanisch +Ehrgeiz ch Worten suchen +Gedächtnis +Gesten +Grammatik +Anstrengungchdenken;1;1
Dn20Df;83.772505;Enkmitas;emo;14;Control;Dn20Df_Enkmitas;Lustig +Nähe +Verständnis +Zusammengehörigkeit +Gefühle +Ähnlichkeit +Seltsam+Vertraut,;1;1
Dn20Df;86.714895;Glühm;neu;8;Control;Dn20Df_Glühm;zufällig +Freude +Wiederfinden+Glücklich sein +Einfall+Schlüssel +Suche+finden,;1;1
Dn20Df;75.875985;Odef;neu;25;Control;Dn20Df_Odef;Sorgen+Gefühle+Zweifel+Ängste+Gedanken+Schlaflosigkeit,;1;1
Dn20Df;86.36864;Zwelde;emo;3;Control;Dn20Df_Zwelde;Abwarten +Ungeduldig sein +Freude +Anspannung +Nervösität +Vorfreude+Checkliste +Gepäck ,;1;1
Dn20Df;87.292805;Vul;neu;0;Control;Dn20Df_Vul;Reflexion+Gedanken+aufschreiben+Selbstkritik+Selbstlob+Selbstwert+Erwartungen an sich selbst;1;1
Dn20Df;89.81523;Mölauzegt;neu;21;Control;Dn20Df_Mölauzegt;Ehrgeiz +sich selbst etwas beweisen +Eifer +Lernen+Talent +Übung+Wiederholung +Probieren +Erfolg +Misserfolg +Anstrenngung;1;1
Dn20Df;89.23692;Häugnung;neu;11;Control;Dn20Df_Häugnung;Vermissen +Beziehungen+Berührung +Umarmen+Corona +Kontaktbeschränkung+Freundschaft +Wiedersehen+Helfen+Trösten,;1;1
Dn20Df;72.8486;Ferandsor;neu;29;Control;Dn20Df_Ferandsor;Aufschieben+zögern+etwas bereuen+Erkenntnis+Dummheit+kurzfirstig +Belohnung +Konsequenz +unangenehm+langfristig +entscheiden;1;1
Dn20Df;84.63271;Struk;neu;20;Control;Dn20Df_Struk;Erfolg +Erwartung +Enttäuschung +Negativ +positiv +Zeit +Zeitspanne +Druck +Ziele +Lebensziel +Beruf +Erkenntnis ,;1;1
Dn20Df;89.036415;Rugliebast;emo;9;Control;Dn20Df_Rugliebast;Unsicherheit+Schüchternheit +Interesse +Sprechen+Schweigen +Gesten +Blicke ,;1;1
Dn20Df;78.39506;Troff;neu;24;Control;Dn20Df_Troff;Angst +Flucht+Vermeidung +Unangenehm +Liebe +Peinlichkeit +Wiedersehen+Panik ,;1;1
Dn20Df;56.45454;Zimerhubst;emo;2;Control;Dn20Df_Zimerhubst;Zufriedenheit +Entspannt sein +keine Sorgen+Leise +Stille +Anstrennung fällt ab;1;1
Dn20Df;89.679325;Mege;emo;15;Control;Dn20Df_Mege;alleine +einsam +keine Kontakte +keine Freunde +langeweile +Netflix +entspannung ,;1;1
Dn20Df;71.604155;Weforshank;neu;16;Control;Dn20Df_Weforshank;friedlich+entspannt +schön +Morgen +auschlafen +Träume +gähnen +in Gedanken sein +Ruhe +frieden;1;1
Dn20Df;75.72988;Faube;neu;26;Control;Dn20Df_Faube;Liebe +Vertrautheit +Zufriedenheit +Partnerschaft+Freundschaft+Familie +Zusammengehörigkeit+Gemeinschaft +schön +verliebt +glücklich +geborgen;1;1
Dn20Df;83.078075;Herklögen;emo;4;Control;Dn20Df_Herklögen;eigentlich interessiert +Schwarm +Desinteresse vortäuschen+sich verstellen +Kennenlernen+unehrlich +Gesellschaft,;1;1
Dn20Df;89.77781;Wumeizauch;emo;10;Control;Dn20Df_Wumeizauch;Depression+Trauer+Einsamkeit+Alleine+weinen+sich leer fühlen+Alles in Frage stellen +Herzschmerz+tiefe Trauer+Grundlos;1;1
Dn20Df;85.86198;Neif;emo;1;Control;Dn20Df_Neif;Vorfreude +Langeweile +Abwarten +Fenster +Auto +Freundschaft +Besuch +Verwandschaft +Zeit ,;1;1
Dn20Df;76.51569;Wupforau;emo;12;Control;Dn20Df_Wupforau;Faulheit+Ängstlichkeit+alleine wohnen+Sofa +Familie+Postbote +Türklingel +faulenzen+enspannen+gestört werden;1;1
Dn20Df;77.44743;Namistell;neu;19;Control;Dn20Df_Namistell;Nervösität +Angst +Stress +Wiederholen +Anspannung +Versagensangst+Vorstellungsgespräch +Klausur +Prüfung +Telefonate;1;1
IN11MH;30.583495;Vul;neu;0;Imagery;IN11MH_Vul;Frustration+nicht vorankommen+Hilfe+Instruktionen;1;1
IN11MH;19.39195;Plüpp;neu;17;Imagery;IN11MH_Plüpp;Feuereifer+Freude+Anerkennung+Fertigstellung+Stolz;1;1
IN11MH;27.36164;Preier;emo;5;Imagery;IN11MH_Preier;Genervtheit+Wut+gekränkt+ignorieren+mit den Augen rollen,;1;1
IN11MH;21.023325;Troff;neu;24;Imagery;IN11MH_Troff;positiv oder negativ+Inspiration+An eigene Bedürfnisse erinnern+Mitmenschen;1;1
IN11MH;18.265105;Faube;neu;26;Imagery;IN11MH_Faube;Aufregung+Pure Freude+Schmetterlinge im Bauch+Neugier auf weiteres Kennenlernen+kann es kaum glauben ,;1;1
IN11MH;19.764215;Weforshank;neu;16;Imagery;IN11MH_Weforshank;Weinen+Emotionalh am Wasser gebaut+Kritikfähigkeit+sich beruhigen+beschämend,;1;1
IN11MH;11.255265;Muschürdur;emo;6;Imagery;IN11MH_Muschürdur;auf sich selbst sauer sein+Hoffench Wort suchen ,;1;1
IN11MH;22.874475;Ferandsor;neu;29;Imagery;IN11MH_Ferandsor;Ruhe+Zufriedenheit+anstrebsam,;1;1
IN11MH;18.739815;Rugliebast;emo;9;Imagery;IN11MH_Rugliebast;Wohlergehen+Liebe+Wärme+Geborgenheit+tut gut+Aufpassen,;1;1
IN11MH;16.366455;Namistell;neu;19;Imagery;IN11MH_Namistell;anstrengend+Aufwand+Lernen+Lernerfolg+Englisch+Spanisch+Schule+Präsentation+Telefonat+Ausland;1;1
IN11MH;13.3336;Zimerhubst;emo;2;Imagery;IN11MH_Zimerhubst;Glück+Empathie+Trauer+Verständnis+Gute Freunde;1;1
IN11MH;19.050335;Enkmitas;emo;14;Imagery;IN11MH_Enkmitas;Geld+Gegenstand+Freude+Überraschung+runtergefallen+versteckt,;1;1
IN11MH;9.40723;Skibt;neu;18;Imagery;IN11MH_Skibt;Müdigkeit+Unzufriedenheit+schlechter Traum +Aufwachen+leichter Schlaf,;1;1
IN11MH;16.449555;Mölauzegt;neu;21;Imagery;IN11MH_Mölauzegt;Aufregung+Glück+Vorfreude+Aufgekratzt sein+Überprüfen;1;1
IN11MH;13.93699;Neif;emo;1;Imagery;IN11MH_Neif;reflektieren+verbessern,;1;1
IN11MH;16.204615;Wumeizauch;emo;10;Imagery;IN11MH_Wumeizauch;Übung +Frustration+Erfolg+dran bleiben ,;1;1
IN11MH;17.46471;Häugnung;neu;11;Imagery;IN11MH_Häugnung;keine Berührungsängste+extravertiert+romantisch+Mittel zum Zweck,;1;1
IN11MH;15.647935;Wunicher;emo;27;Imagery;IN11MH_Wunicher;Verantwortung+Last+etwas erreichen können+Veränderung;1;1
IN11MH;23.70038;Glühm;neu;8;Imagery;IN11MH_Glühm;Plan+Zufriedenheit+Stolz+Ziel erreichen+Erfolg feiern;1;1
IN11MH;10.89015;Struk;neu;20;Imagery;IN11MH_Struk;Lösung+Problem+Sprechen+Abwarten+hoffen;1;1
IN11MH;16.931275;Bismirbiel;emo;13;Imagery;IN11MH_Bismirbiel;Blickkontakt vermeiden+Distanz wahren+Sich mit anderen Menschen unterhalten+ungutes Gefühl+schnell weg,;1;1
IN11MH;19.6509;Mege;emo;15;Imagery;IN11MH_Mege;Glückseeligkeit+kann so bleiben+Wunsch;1;1
IN11MH;8.558475;Zwelde;emo;3;Imagery;IN11MH_Zwelde;zu viel+Auszeit+Ruhe+soziale Interaktionen+Batterie aufladen+isoliert+introvertiert,;1;1
IN11MH;12.12491;Bisknirgo;emo;28;Imagery;IN11MH_Bisknirgo;Sonne+Fenster+Wärme+Lächeln+Ausgeschlafen+guter Tag+Energie+im Traum schwelgen;1;1
IN11MH;16.304355;Wupforau;emo;12;Imagery;IN11MH_Wupforau;Familie+Freundschaft+Vertrauen+alles erzählen können,;1;1
IN11MH;12.516105;Iberletsch;neu;23;Imagery;IN11MH_Iberletsch;unnötig+macht jeder+Strategie+Hoffen;1;1
IN11MH;10.34427;Herklögen;emo;4;Imagery;IN11MH_Herklögen;Last+schlechte Laune+Unlust+Verzweiflung+Bett+Nichts tun +Weinen;1;1
IN11MH;9.760725;Ismiprämpf;emo;7;Imagery;IN11MH_Ismiprämpf;Fenster+hibbelig+rumlaufen+putzen+Glück+Spiegel angucken,;1;1
IN11MH;12.457855;Odef;neu;25;Imagery;IN11MH_Odef;Horchen +Unsicherheit;1;1
IN11MH;10.500035;Bingsemöl;neu;22;Imagery;IN11MH_Bingsemöl;wichtige Entscheidungen+Vortrag+Arbeit+Schule+Freundschaft+Beziehung+alltäglich+Bewertung;1;1
CL10SL;89.69;Mölauzegt;neu;21;Control;CL10SL_Mölauzegt;frustrierend+Stillstand+Informationen+Wissensstand,;1;0
CL10SL;87.399;Wupforau;emo;12;Control;CL10SL_Wupforau;Leidenschaft+Engagement+investieren+Hingabe+Zeit;1;0
CL10SL;80.285;Glühm;neu;8;Control;CL10SL_Glühm;unerwünscht+aufdringlich+nervig+gereizt+negativ+Tipp+gut gemeint+nicht hilfreich+nutzlos,;0.666666667;1
CL10SL;77.601;Rugliebast;emo;9;Control;CL10SL_Rugliebast;abschauen+beeinflussenchahmung+Empathie;1;0
CL10SL;89.928;Troff;neu;24;Control;CL10SL_Troff;Zufall+Begegnung+Liebe auf den ersten Blick+Anziehung+Attraktivität;1;1
CL10SL;78.006;Namistell;neu;19;Control;CL10SL_Namistell;unangebracht+übertrieben+verständlich+irrational+emotional+stressig+Konflikt+Überreaktion,;0.666666667;0
CL10SL;60.227;Zwelde;emo;3;Control;CL10SL_Zwelde;frustrierend+vergessen+entfallen+Erinnerung;0.666666667;1
CL10SL;69.275;Bisknirgo;emo;28;Control;CL10SL_Bisknirgo;Vertrauen+Zuverlässigkeit+Verbundenheit+verbindlich+abgesichert,;1;1
CL10SL;66.614;Häugnung;neu;11;Control;CL10SL_Häugnung;Bindung+Beziehung+Nähe+Geborgenheit+Familie,;1;0
CL10SL;84.015;Bismirbiel;emo;13;Control;CL10SL_Bismirbiel;englisch+Fremdsprache+struggle+Enkmitas+Wörterchdenken+Schwierigkeiten+unangenehm+deutsch+Akzent+Grammatik,;1;1
CL10SL;87.993;Neif;emo;1;Control;CL10SL_Neif;Empathie+Einfühlungsvermögen+Verbundenheit+relate+Freundschaft+Verständnis+Sicherheit;1;1
CL10SL;69.209;Herklögen;emo;4;Control;CL10SL_Herklögen;Überraschung+Zufall+Gegenstand+Objekt+verlegt+vergessen;1;1
CL10SL;82.716;Skibt;neu;18;Control;CL10SL_Skibt;Stress+Unruhe+Erschöpfung+Sorgen+Müdigkeit+unzufrieden+gereizt;1;0
CL10SL;79.935;Ferandsor;neu;29;Control;CL10SL_Ferandsor;Koffer+packen+fertig+Urlaub+Reise+Zug+Flugzeug+Abschied+Stille+Nervosität+Gelassenheit+Rucksack+Taschen,;0.666666667;1
CL10SL;75.221;Vul;neu;0;Control;CL10SL_Vul;+subjektiv+Bewertung+Kritik+Lob+Gefühl+Eigenwahrnehmung+Reflektion+wiederspiegeln+Wahrnehmung+Spiegel+Verhalten+Analyse,;1;0
CL10SL;66.243;Bingsemöl;neu;22;Control;CL10SL_Bingsemöl;Darts+Übung+Wiederholung+Konzentration+Lernen,;0.666666667;0
CL10SL;57.348;Wunicher;emo;27;Control;CL10SL_Wunicher;Drang+körperliche Nähe+Impuls+unangebracht+zurück;1;1
CL10SL;83.517;Iberletsch;neu;23;Control;CL10SL_Iberletsch;Gewissheit+endgültig+Entscheidung+Wahl+Folge+gewiss+Aufschieben;1;0
CL10SL;71.639;Wumeizauch;emo;10;Control;CL10SL_Wumeizauch;Erkenntnis+Plan+vorhersehbar+eingetroffen+Entwicklung+Einfluss+vorausschauend;0.666666667;0
CL10SL;59.064;Faube;neu;26;Control;CL10SL_Faube;Unsicherheit+Gespräch+Blick+wegschauen+intensiv,;1;1
CL10SL;62.879;Muschürdur;emo;6;Control;CL10SL_Muschürdur;unwohl+Sorge+Nervosität+soziale Angst+unangenehm+Person;1;0
CL10SL;88.96;Plüpp;neu;17;Control;CL10SL_Plüpp;Meditation+Dankbarkeit+Atmungtur+Universum+Einklang,;1;0
CL10SL;72.606;Preier;emo;5;Control;CL10SL_Preier;introvertiert+abgegrenzt+Ruhe+soziale Kontakte+Gespräche+Party+Lesen+Netflix+still+unabhängig+Unwohlsein,;1;0
CL10SL;88.631;Struk;neu;20;Control;CL10SL_Struk;Schlaf+Aufwachen+zufrieden+angenehm+warm+sicher+geborgen;1;1
CL10SL;81.637;Ismiprämpf;emo;7;Control;CL10SL_Ismiprämpf;Geborgenheit+Sicherheit+Gelassenheit+Vertrauen+Ruhe+Freundschaft+Gefühl+angenehm;1;1
CL10SL;68.01;Enkmitas;emo;14;Control;CL10SL_Enkmitas;unecht+vorgeben+interessiert+haben wollen+unehrlich+Neid+Unsicherheit;1;0
CL10SL;71.46;Zimerhubst;emo;2;Control;CL10SL_Zimerhubst;Gefühl+Unterbewusstsein+Weinen+Verzweifelung+allein sein+Überforderung+V;1;0
CL10SL;84.431;Weforshank;neu;16;Control;CL10SL_Weforshank;Ungeduld+Vorfreude+unruhig+abwarten+lcontrollcommand;1;1
CL10SL;89.214;Odef;neu;25;Control;CL10SL_Odef;Unsicherheit+Geduld+Anspannung+Abwägung,;1;1
CL10SL;74.571;Mege;emo;15;Control;CL10SL_Mege;Nervosität+Sorge+Unruhig+Telefonat+versprechen+formulieren+,;1;1
IN6DF;32.78412;Wunicher;emo;27;Imagery;IN6DF_Wunicher;NA;1;1
IN6DF;29.099935;Namistell;neu;19;Imagery;IN6DF_Namistell;+neues entdecken;0.666666667;1
IN6DF;37.843585;Ismiprämpf;emo;7;Imagery;IN6DF_Ismiprämpf;NA;1;1
IN6DF;34.467535;Häugnung;neu;11;Imagery;IN6DF_Häugnung;NA;1;1
IN6DF;18.03066;Bingsemöl;neu;22;Imagery;IN6DF_Bingsemöl;NA;1;1
IN6DF;35.70351;Ferandsor;neu;29;Imagery;IN6DF_Ferandsor;NA;1;1
IN6DF;37.852285;Zimerhubst;emo;2;Imagery;IN6DF_Zimerhubst;Fail;1;1
IN6DF;70.924005;Wupforau;emo;12;Imagery;IN6DF_Wupforau;NA;1;1
IN6DF;28.56467;Vul;neu;0;Imagery;IN6DF_Vul;NA;1;1
IN6DF;40.070005;Bisknirgo;emo;28;Imagery;IN6DF_Bisknirgo;NA;1;1
IN6DF;33.16375;Weforshank;neu;16;Imagery;IN6DF_Weforshank;NA;1;1
IN6DF;50.64769;Bismirbiel;emo;13;Imagery;IN6DF_Bismirbiel;+Erlebnis+was neues+Begeisterung für neues;1;1
IN6DF;43.17013;Mölauzegt;neu;21;Imagery;IN6DF_Mölauzegt;NA;1;1
IN6DF;38.925615;Mege;emo;15;Imagery;IN6DF_Mege;NA;1;1
IN6DF;34.80254;Plüpp;neu;17;Imagery;IN6DF_Plüpp;+unzufriedenheit+unglücklich;1;1
IN6DF;28.782725;Odef;neu;25;Imagery;IN6DF_Odef;lusche;1;1
IN6DF;32.810895;Rugliebast;emo;9;Imagery;IN6DF_Rugliebast;,;1;1
IN6DF;50.29546;Preier;emo;5;Imagery;IN6DF_Preier;NA;1;0
IN6DF;19.11764;Faube;neu;26;Imagery;IN6DF_Faube;NA;1;1
IN6DF;0.782005;Herklögen;emo;4;Imagery;IN6DF_Herklögen;NA;1;1
IN6DF;27.180855;Struk;neu;20;Imagery;IN6DF_Struk;NA;1;1
IN6DF;29.4431;Enkmitas;emo;14;Imagery;IN6DF_Enkmitas;NA;1;1
IN6DF;48.242175;Iberletsch;neu;23;Imagery;IN6DF_Iberletsch;NA;1;1
IN6DF;22.7141;Zwelde;emo;3;Imagery;IN6DF_Zwelde;beste traum;1;1
IN6DF;35.87759;Troff;neu;24;Imagery;IN6DF_Troff;+nett +freundlch;1;1
IN6DF;50.314275;Muschürdur;emo;6;Imagery;IN6DF_Muschürdur;NA;1;1
IN6DF;30.034685;Skibt;neu;18;Imagery;IN6DF_Skibt;NA;1;1
IN6DF;1.20089;Wumeizauch;emo;10;Imagery;IN6DF_Wumeizauch;angekommen+regelmässig +fürsorge+einfüllsam;1;1
IN6DF;33.72483;Glühm;neu;8;Imagery;IN6DF_Glühm;NA;1;1
IN6DF;52.3862;Neif;emo;1;Imagery;IN6DF_Neif;gute vorberteitet,;1;1
AG10TF;62.949835;Mölauzegt;neu;21;Control;AG10TF_Mölauzegt;negativ+grübeln+Sorgen+Stress+Depression,;1;1
AG10TF;85.536625;Plüpp;neu;17;Control;AG10TF_Plüpp;Flow+wichtig+Arbeitsmoral;1;1
AG10TF;73.490895;Wumeizauch;emo;10;Control;AG10TF_Wumeizauch;meist eher nervig+kann hilfreich sein+hätte man sich getraut zu fragen?+dankbar+gereizt+situationsabhängig;1;1
AG10TF;77.225415;Ferandsor;neu;29;Control;AG10TF_Ferandsor;filmerisch+Romantic Comedy;1;1
AG10TF;81.874225;Struk;neu;20;Control;AG10TF_Struk;logisch+neutral;1;1
AG10TF;58.32801;Bismirbiel;emo;13;Control;AG10TF_Bismirbiel;Überkompensation,;1;1
AG10TF;29.75295;Namistell;neu;19;Control;AG10TF_Namistell;nervig+anstrengend+Fremdsprachen+häufig+Wortfindungsstörungen+warum nur;1;1
AG10TF;21.33833;Bingsemöl;neu;22;Control;AG10TF_Bingsemöl;neutral+Voraussetzung für Zusammenarbeit+wünschenswert;1;1
AG10TF;72.276295;Vul;neu;0;Control;AG10TF_Vul;wunscherschön+Geborgenheit+Wärme+Vertrauen+wichtig,;1;1
AG10TF;46.917955;Rugliebast;emo;9;Control;AG10TF_Rugliebast;Sozialer Druck+mehr trauen+toleranter werden für Fehler+verständlich;1;1
AG10TF;31.765515;Wupforau;emo;12;Control;AG10TF_Wupforau;positiv+lachen+warm+Frendschaft+Freund,;1;1
AG10TF;25.801215;Faube;neu;26;Control;AG10TF_Faube;Glück+Freude +angenehm,;1;1
AG10TF;79.403905;Glühm;neu;8;Control;AG10TF_Glühm;viel zu oft+anstrengend,;1;1
AG10TF;79.430295;Preier;emo;5;Control;AG10TF_Preier;Wunsch+Sehnsucht+Aufregung,;1;1
AG10TF;86.26019;Wunicher;emo;27;Control;AG10TF_Wunicher;Nervig+anstrengend+selbstkritisch+Zweifel,;1;1
AG10TF;46.59904;Neif;emo;1;Control;AG10TF_Neif;Druck+aufgezwungen+intrinsisch?,;1;1
AG10TF;89.237235;Ismiprämpf;emo;7;Control;AG10TF_Ismiprämpf;überwältigend+schön+frustrierend+Erschwert durch Pandemie+motiviert;1;1
AG10TF;59.94163;Skibt;neu;18;Control;AG10TF_Skibt;Selbstwirksamkeit+Stolz+selbstbestimmt;1;1
AG10TF;41.704045;Zwelde;emo;3;Control;AG10TF_Zwelde;Selbstwirksamkeit+Anstrenung +auszahlen+positiv+gutes Gefühl+Selbstbewusstsein;1;1
AG10TF;41.30107;Mege;emo;15;Control;AG10TF_Mege;Errötung+Anziehung+attraktiv+trauen+Mut;1;1
AG10TF;32.649845;Zimerhubst;emo;2;Control;AG10TF_Zimerhubst;vorausschauend+anstrengend;1;1
AG10TF;89.01143;Muschürdur;emo;6;Control;AG10TF_Muschürdur;Nirvana+Langeweile+Ruhe+Reiz Freiheit;1;1
AG10TF;88.94425;Iberletsch;neu;23;Control;AG10TF_Iberletsch;negativ+unschön+vorsichtig+traurig;1;1
AG10TF;39.57928;Troff;neu;24;Control;AG10TF_Troff;Spannendes Gefühl+Realistischer Traum?+Verarbeitung+Introspektion;1;1
AG10TF;53.618875;Enkmitas;emo;14;Control;AG10TF_Enkmitas;Freundschaft+Liebe+Gesellschaft+angenehm+Kneipe+Feierabendbier,;1;1
AG10TF;50.50523;Bisknirgo;emo;28;Control;AG10TF_Bisknirgo;inkongruent+doof+selbstlos?+unangenehm,;1;1
AG10TF;40.02702;Odef;neu;25;Control;AG10TF_Odef;merkwürdig+vorübergehend+Körperlichkeit;1;1
AG10TF;28.865995;Weforshank;neu;16;Control;AG10TF_Weforshank;paranoid+vorbereitet+anstrengend,;0.666666667;1
AG10TF;30.618505;Herklögen;emo;4;Control;AG10TF_Herklögen;Sozialer Druck+unangenehm+Interaktion+anxiety,;1;1
AG10TF;41.50165;Häugnung;neu;11;Control;AG10TF_Häugnung;Druck+Vorbereitung+unangenehm +Zweifel?+souverän;1;1
ST23WL;34.507;Namistell;neu;19;Control;ST23WL_Namistell;anstrengend +man will lösung finden +bestmöglichste Lösung +kann nur mich betreffen oder oft auch andere+Entscheidungen +Zukunft+Vergangenheit +handlungen+die passiert sind,;1;1
ST23WL;48.921;Wumeizauch;emo;10;Control;ST23WL_Wumeizauch;ehrgeizig+ich will es gut machen+ich gebe alles+ich mache es nicht halbherzigchher kann man stolz seines erledigt zu haben +mühe+anstregend+stress+belohung;1;1
ST23WL;34.823;Wunicher;emo;27;Control;ST23WL_Wunicher;nett gemeint+kann auch nerven +besserwisser+komisces gefühl+als könnte man es ncht alleine+kann helfen;0.666666667;1
ST23WL;59.959;Zwelde;emo;3;Control;ST23WL_Zwelde;umarmung+liebe geste+Hochzeit+schönes gefühl+ich werde von deren glücl angesteckt +lächeln +wohlig+geborgenheit+emotionale wärme+zwei menschen+partner+freundschaft;1;1
ST23WL;55.449;Troff;neu;24;Control;ST23WL_Troff;nette begegnung+person wohnt vielleicht bei mir in der nähe +teil meines sozialen umfelds+haben irgendetwas gemeinsam+sodass man sich vermutlich häufiger sieht,;0.666666667;1
ST23WL;31.714;Bisknirgo;emo;28;Control;ST23WL_Bisknirgo;meist unnötig+man sieht erst im nachhinein+dass es übertrieben war +oft unter stress+kann mich betreffen und auch andere+vielleicht weil es mir wichtig ist,;0.666666667;1
ST23WL;26.001;Mege;emo;15;Control;ST23WL_Mege;vergessen+sprache+unangenehm+nervig+es liegt mir auf der Zunge+fällt mir bestimmt gleich wieder ein +womit könnte es zusammenhängen+abgelenkt;1;1
ST23WL;40.941;Häugnung;neu;11;Control;ST23WL_Häugnung;to do liste+abhaken+neutral+wenn ich die person nicht gut kenne+kann mich anspornen meine eigenen Aufgaben erledigen zu wollen+kann mich unter Druck setzten mit eigenen Aufgaben+arbeit +uni,;1;1
ST23WL;40.733;Struk;neu;20;Control;ST23WL_Struk;schönes gefühl +geborgenheit +sicherheit+man kann sich fallen lassen +zu Hause+man kann exakt so sein+wie man ist+mama+papa+geschwister,;1;1
ST23WL;34.319;Preier;emo;5;Control;ST23WL_Preier;unangenehm+herausforderung +möglichkeit daraus zu lernen+man eill zeigen+dass man es eigentlich besser kann+Lernen+peinlich,;1;1
ST23WL;16.772;Glühm;neu;8;Control;ST23WL_Glühm;schönes gefühl +es sind die kleinen Dinge +sich für andere freuen können+gönnen+mitfiebern+erleichterung+wenn etwas tolles geklappt hat +wohliges bauchgefühl+lächeln+freude+fam;1;1
ST23WL;37.767;Muschürdur;emo;6;Control;ST23WL_Muschürdur;kleiner glücksmoment +überraschung +schönes bauchgefühl+lächeln +man hat nich damit gerechent+darum ist es noch schöner+kleinigkeiten+will ich +,;1;1
ST23WL;30.165;Skibt;neu;18;Control;ST23WL_Skibt;müde+anstrengender Tag+kaffee+langsamer als sonst+entweder nacht war toll+oder man ärgert sich so lange wach gebleiben zu sein,;1;1
ST23WL;30.943;Odef;neu;25;Control;ST23WL_Odef;fernweh+sehnsucht+vorfreude ist die schönste freude+ich will auch+entspannung +koffer packen +reise planen+erlebnisse+erfahrungen+erinnerungen+kostbar+reife+familie+freunde+kultur;1;1
ST23WL;35.096;Ferandsor;neu;29;Control;ST23WL_Ferandsor;will nicht +schlimm+unbefriedigend+schwierig davon schnell wieder los zu kommen+deprimierend+wenn man hart für etwas gearbeitet hat und es klappt einfach nicht +man will es;1;1
ST23WL;59.751;Plüpp;neu;17;Control;ST23WL_Plüpp;ehrgeiz+sport+übung macht den meister+erschöpfung+man will nicht aufgeben+man will es sich beweisen +ich kann das+durchhaltevermögen,;1;1
ST23WL;35.423;Bismirbiel;emo;13;Control;ST23WL_Bismirbiel;liebe+vertrauen+den nächsten schritt wagen+aufregend+zuneigung+geborgenheit+sexuelles verlangen+partner,;1;1
ST23WL;29.133;Weforshank;neu;16;Control;ST23WL_Weforshank;zukunft +Job+ich treffe entscheidung für mich+man hofft+dass es die richtige Entscheidung war +emanzipiert+mutig+auf sein bauchgefühl hören+endgültig;1;1
ST23WL;29.765;Faube;neu;26;Control;ST23WL_Faube;tolles Gefühl+wünsche ich jedem+dass er stolz auf sich sein kann+sieht man erst mit etwas abstand+am liebsten will man allen davon erzählen+wenn man zu sich selbst findet+betri;1;1
ST23WL;28.137;Enkmitas;emo;14;Control;ST23WL_Enkmitas;schüchtern+angespannt+vorstellungen+erwartungen+Rollenbilder+aufregend+kann schön sein +knistern+erfahrungen+hoffnung,;1;1
ST23WL;33.352;Ismiprämpf;emo;7;Control;ST23WL_Ismiprämpf;unangenehm+wenn man im Stress ist+Zeit+vielleicht will man auch einfach nicht+andere person nicht mögen+man selbst ist nicht in der Stimmung für unterhaltungenchbarn +bekannte+leute zu denen man nicht so enge beziehung hat;1;1
ST23WL;37.735;Bingsemöl;neu;22;Control;ST23WL_Bingsemöl;selten+ruhig+angenehm+entspannend+frühling+sommer+bett+liegen+sitzen;1;1
ST23WL;22.934;Iberletsch;neu;23;Control;ST23WL_Iberletsch;vermeiden +Angst+will nicht +kann ich überhaupt wieder vertrauen+beziehung+partner+liebe+freund+bauchgefühl+vertrauensbruch+verschlossen+gedanken;1;1
ST23WL;25.688;Wupforau;emo;12;Control;ST23WL_Wupforau;schön +wohliges gefühl+spannend+morgens+manchmal peinlich +unterbewusstsein+dinge verarbeiten+detail+Gefühl;1;0
ST23WL;26.694;Vul;neu;0;Control;ST23WL_Vul;freundschaft+uni+arbeit+sport+konversationen+familie+soziale kontakte aufrecht erhalten+wichtig+tut der seele gut +bin ich gerne+zeit vergeht schnell,;1;1
ST23WL;60.288;Mölauzegt;neu;21;Control;ST23WL_Mölauzegt;ich will eigentlich+aber ich kann nicht nicht+rücksichtsvoll gegenüber anderen+abstriche machen+um eigene ziele zu erreichen+zielstrebig+schade+man  könnte etwas tolles verpassen;1;1
ST23WL;31.548;Rugliebast;emo;9;Control;ST23WL_Rugliebast;beunruhigend+man macht sich sofort gedanken+überinterpretierenchdenklich woran es liegen könnte +man sucht grund+angst+dass es was schlimmes sein könnte+meist aber gar nichts schlimmes+geht oft schnell;1;1
ST23WL;40.129;Zimerhubst;emo;2;Control;ST23WL_Zimerhubst;überwachung+man will vorbereitet sein+geduldig+zwanghaft+kontrolle,;0.666666667;1
ST23WL;33.226;Herklögen;emo;4;Control;ST23WL_Herklögen;machen viele leute +faul+aufgabe+man will gerade keine leute sehen+verantwortung,;1;1
ST23WL;26.652;Neif;emo;1;Control;ST23WL_Neif;wenn man nervös ist +betrifft immer auch andere+man will niemandem zur last fallen+man will guten eindruck hinterlassen+nervös,;1;1
AS27SN;37.002;Iberletsch;neu;23;Control;AS27SN_Iberletsch;lernen+sich informieren+Entschluss+Suche+Zeitaufwand+Wissenslosigkeit ,;1;1
AS27SN;11.86;Bingsemöl;neu;22;Control;AS27SN_Bingsemöl;Motivation+auf etwas Lust haben+ehrgeizig+Ziel vor Augen+Freude+Herzblut+wichtig+Hilfsbereitschaft;0.666666667;1
AS27SN;7.162;Odef;neu;25;Control;AS27SN_Odef;nervig+anmaßend +unangebracht+frech +sich ärgern+höflich bleiben+Mansplaining +Herabsetzung+respektlos;1;1
AS27SN;20.289;Muschürdur;emo;6;Control;AS27SN_Muschürdur;Empathie+Begegnung+Beeinflussbarkeitchempfinden+fühlen+Neugierde+Kontakt+gespannt;1;1
AS27SN;5.055;Namistell;neu;19;Control;AS27SN_Namistell;Bauchgefühl+Zukunft+Schmetterlinge im Bauch+sofortige Verbindung+Seelenverwandtschaft+gute Gespräche+Sympathie+Zuneigung+jemanden attraktiv finden+Liebe auf den ersten Blick+Schicksal;1;1
AS27SN;16.316;Bisknirgo;emo;28;Control;AS27SN_Bisknirgo;Wut+Emotionalität+Unzufriedenheit+unangepasst+unerwartet+tieferliegende Probleme+verdrängen+projizieren+emotionale Instabilität,;1;0
AS27SN;8.643;Bismirbiel;emo;13;Control;AS27SN_Bismirbiel;Ärger+Enttäuschung+peinlich+unangenehm+nervig+sich dumm vorkommen+vermasseln +nervös werden;1;1
AS27SN;10.782;Weforshank;neu;16;Control;AS27SN_Weforshank;Dankbarkeit+Sich auf jmd. verlassen können+Teamwork+Sicherheit+gelingen+Pflichtbewusstsein+Zusammenarbeit+entspannt,;1;1
AS27SN;5.857;Skibt;neu;18;Control;AS27SN_Skibt;Urvertrauen+Liebe+Zuneigung+Sicherheit+Familie+Geborgenheit+aufwachsen+stillen+Erziehung;0;1
AS27SN;4.012;Zwelde;emo;3;Control;AS27SN_Zwelde;Anstrengung+lernen+Wissen anwenden+stolz sein+erschöpfend+weltoffener+Abwechslung+Herausforderung;0.666666667;1
AS27SN;17.426;Ferandsor;neu;29;Control;AS27SN_Ferandsor;Empathie+Mitgefühl+Mitleid+Freundschaft+Trauer+Freude+Verbundenheit+Sorge,;1;0
AS27SN;11.636;Struk;neu;20;Control;AS27SN_Struk;Glück+verloren +unerwartet+erfreuend+Überraschung ,;1;1
AS27SN;5.223;Troff;neu;24;Control;AS27SN_Troff;Angst+Nervosität+Panik+Müdigkeit+Albtraum+schwach+unruhig+zittrig+energielos+Trauer+Anspannung;1;1
AS27SN;8.941;Vul;neu;0;Control;AS27SN_Vul;Vorfreude+Aufregung+Erwartungen+vorbereiten+planen+sich freuen+langsames Zeitvergehen+Herzklopfen+Koffer kontrollieren;0.333333333;1
AS27SN;12.414;Mölauzegt;neu;21;Control;AS27SN_Mölauzegt;Reflektion +Selbstbewusstsein+Selbsterkenntnisse +sich verbessern+sich ändern+kennenlernen+Entwicklung+Feedback;1;1
AS27SN;15.331;Ismiprämpf;emo;7;Control;AS27SN_Ismiprämpf;Ehrgeiz+Pflichtbewusstsein+Ansprüche+üben+Disziplin+Durchhaltevermögen+Motivation+in etwas gut sein+Stolz+Training+Ziele,;1;1
AS27SN;14.976;Häugnung;neu;11;Control;AS27SN_Häugnung;unangemessen+Bedürfnis+Nähe+Körperkontakt+Grenzen+Selbstkontrolle+Zuneigung+Abstand;0.666666667;1
AS27SN;9.47;Herklögen;emo;4;Control;AS27SN_Herklögen;trotzdem+Trotz+Erwartung+Ignoranz+verdrängen+Prokrastination+verantwortungslos +motivationslos +Bedürfnis;1;1
AS27SN;9.169;Wumeizauch;emo;10;Control;AS27SN_Wumeizauch;Rückblick+Reflektion+Entwicklung+Zielsetzung+Ziele einhalten+bestätigte Erwartungen+stolz+Einsicht;1;1
AS27SN;4.583;Glühm;neu;8;Control;AS27SN_Glühm;Gesprächsbedarf+Schüchternheit+Initiative abgeben+Verantwortung abgeben+Erwartungshaltung+hoffen+Bestellung+unbekannt+kennenlernen+fremd;0.666666667;1
AS27SN;10.28;Neif;emo;1;Control;AS27SN_Neif;Personen+Ängstlichkeit+Vergangenheit+feindschaftlich+Sorge+Bauchschmerzen+genervt+keine Lust+Drama,;0.666666667;1
AS27SN;2.912;Preier;emo;5;Control;AS27SN_Preier;Glück+Stille+Sich wohl fühlen+gemütlich+Sorglosigkeit+wohlig+zu Hause+Vertrautheit+Entspannung+Frieden,;1;1
AS27SN;13.869;Zimerhubst;emo;2;Control;AS27SN_Zimerhubst;Isolation+Ruhe+Einsamkeit+Trubel vermeiden+soziale Ängstlichkeit+Stille+keine Lust+gestresst+nervig;1;0
AS27SN;6.8;Plüpp;neu;17;Control;AS27SN_Plüpp;ausgeglichen+Freude+gute Laune+guter Start in den Tag +zufrieden+erzählen+Traumtagebuch+ausgeruht,;1;1
AS27SN;8.934;Wunicher;emo;27;Control;AS27SN_Wunicher;Entspannung+Liebe+Freundschaft+kuscheln+man selbst sein+Vertrauen+Gelassenheit+Ruhe+Verbundenheit+sich wohl fühlen ,;1;1
AS27SN;6.197;Wupforau;emo;12;Control;AS27SN_Wupforau;Neid+Verlangen+Stolz+unangenehm+peinlich+Selbstbild+Verstellen,;1;1
AS27SN;12.674;Mege;emo;15;Control;AS27SN_Mege;Depression+unerwartet+überweltigend+beängstigend+Hormone+Stimmungsschwankungen+kraftlos+machtlos +Unwohlsein+ Verzweiflung+Hilfe suchen,;1;1
AS27SN;3.827;Enkmitas;emo;14;Control;AS27SN_Enkmitas;Freundschaft+Vorfreude+Empfang+Glück+aufgeregt+umarmen +Begrüßung +Wiedersehen+Pläne umsetzen+gemeinsame Zeit verbringen+Zuneigung+vermissen;1;1
AS27SN;23.543;Rugliebast;emo;9;Control;AS27SN_Rugliebast;egal+unwichtig+faul+nicht aufstehen wollen+Kontakt vermeiden+nicht gestört werden wollen,;0.666666667;0
AS27SN;7.159;Faube;neu;26;Control;AS27SN_Faube;Sorge+nichts falsch machen wollen+entscheidend+planen+aufgeregt+Fehler+Selbstpräsentation;1;1
AF23HG;30.27154;Bingsemöl;neu;22;Imagery;AF23HG_Bingsemöl;Anspannung+Wieso+Warum+Weshalb+Herzrasen+Übelkeit+Angst;1;1
AF23HG;42.100795;Zimerhubst;emo;2;Imagery;AF23HG_Zimerhubst;Zeit+Kraft+Ziel;1;1
AF23HG;26.85471;Glühm;neu;8;Imagery;AF23HG_Glühm;negatives Gefühl,;1;1
AF23HG;16.35427;Faube;neu;26;Imagery;AF23HG_Faube;Zufriedenheit+Lächeln+ich will auch+warmes Gefühl;0.666666667;1
AF23HG;32.41428;Vul;neu;0;Imagery;AF23HG_Vul;Zukunft+Freunde+besser kennenlernen;1;1
AF23HG;31.048605;Weforshank;neu;16;Imagery;AF23HG_Weforshank;Überreaktion+zu viel;1;1
AF23HG;31.985445;Enkmitas;emo;14;Imagery;AF23HG_Enkmitas;was war das noch+habs gleich+Ärgernis+Frustration+Aufregung;1;1
AF23HG;28.82461;Neif;emo;1;Imagery;AF23HG_Neif;ach+Überraschung+schon+hätte ich nicht gedacht+Freude;1;1
AF23HG;40.013545;Ferandsor;neu;29;Imagery;AF23HG_Ferandsor;schön+warm+Liebe+Nähe+Beschützen+Behüten+Zuneigung+Freude;1;1
AF23HG;33.83456;Häugnung;neu;11;Imagery;AF23HG_Häugnung;schüchtern+peinlich+Entschuldigung+rot werden+Vorwürfe;1;1
AF23HG;25.949065;Struk;neu;20;Imagery;AF23HG_Struk;ich freue mich+warmes Gefühl+Aufregung+Stolz+Liebe;1;1
AF23HG;39.000915;Wupforau;emo;12;Imagery;AF23HG_Wupforau;zufrieden+Überraschung+Freude+Glück+Lachen+Lächeln+innere Ruhe,;1;1
AF23HG;41.887615;Troff;neu;24;Imagery;AF23HG_Troff;verspannt+müde+träge+augen verklebt+augen zu+gähnen+müde Muskeln+muss mich setzen+Mittagsschlaf;1;1
AF23HG;33.538885;Muschürdur;emo;6;Imagery;AF23HG_Muschürdur;packen+Koffer+ferne Länder+Flughafen+Flugzeug+Strandurlaub+lange Autofahrt+Freude+Aufregung+Glückseligkeit+Nervösität+Berge +Sonne+Wandern;1;1
AF23HG;21.55429;Namistell;neu;19;Imagery;AF23HG_Namistell;Wut+Frustration+Selbsthass+Wieso+unfähig+besser werden+Nichtskönner+Vorwürfe;1;1
AF23HG;30.718025;Mölauzegt;neu;21;Imagery;AF23HG_Mölauzegt;Frustration+Ärgernis+Verbissenheit+Verspannung;1;1
AF23HG;45.29411;Skibt;neu;18;Imagery;AF23HG_Skibt;Verlangen+physische Anziehung+sexuelle Erregung+Attraktivität+Aufregung+Freude;1;1
AF23HG;28.576975;Bisknirgo;emo;28;Imagery;AF23HG_Bisknirgo;erwachsen+unabhängig+Herr meines Lebens+wichtige Entscheidung+Veränderung+Verantwortung übernehmen;1;1
AF23HG;24.616355;Herklögen;emo;4;Imagery;AF23HG_Herklögen;großartig+stolz+warmes Gefühl+stark+unaufhaltbar+alles wird gut;1;1
AF23HG;27.25947;Plüpp;neu;17;Imagery;AF23HG_Plüpp;nervös+flattern+hoffentlich+verliebt+Angst+schüchtern;1;1
AF23HG;33.95621;Wumeizauch;emo;10;Imagery;AF23HG_Wumeizauch;bitte nicht+geh weg+will nicht+Abneigung+Angst+Aufregung+Herzrasen+Übelkeit;1;1
AF23HG;31.035395;Ismiprämpf;emo;7;Imagery;AF23HG_Ismiprämpf;ruhig+still+warm+entspannt+keine Gedanken+warme Brise;1;1
AF23HG;30.099005;Zwelde;emo;3;Imagery;AF23HG_Zwelde;Angst+Unsicherheit+Vorsicht+sicherer Hafen+verschlossen;1;1
AF23HG;36.27396;Preier;emo;5;Imagery;AF23HG_Preier;Realität oder Traum+noch müde+Details verblassen;1;1
AF23HG;35.64672;Bismirbiel;emo;13;Imagery;AF23HG_Bismirbiel;zufrieden+fühle mich wohl+Gespräche+alte Zeiten+Lachen+schöne Zeit+warmes Gefühl;1;1
AF23HG;32.28716;Iberletsch;neu;23;Imagery;AF23HG_Iberletsch;Sehnsucht+Wieso+Schade+allein+Traurigkeit+Wehmut+Was wäre wenn...+Ich hätte so gern...;1;1
AF23HG;25.63385;Rugliebast;emo;9;Imagery;AF23HG_Rugliebast;Wieso+Schmerzen+Zittern+Gefühl;1;1
AF23HG;39.426075;Mege;emo;15;Imagery;AF23HG_Mege;schon da+wann endlich+Klingel+Uhr;1;1
AF23HG;32.19647;Odef;neu;25;Imagery;AF23HG_Odef;Aufregung+geh weg+will nicht+Angst+Abneigung+leise sein+mucksmäuschenstill;1;1
AF23HG;37.800925;Wunicher;emo;27;Imagery;AF23HG_Wunicher;Plan+Ordnung+an alles denken+keine Überraschungen+perfekt vorbereitet;1;1
ER1WN;64.15539;Herklögen;emo;4;Control;ER1WN_Herklögen;Unangenehm;1;1
ER1WN;34.021375;Häugnung;neu;11;Control;ER1WN_Häugnung;Wille+Kraft+Motivation;0.666666667;1
ER1WN;44.616255;Rugliebast;emo;9;Control;ER1WN_Rugliebast;Nett+nervig+hilfreich;1;1
ER1WN;55.33353;Mege;emo;15;Control;ER1WN_Mege;Schön+kindisch+Traumhaft,;1;1
ER1WN;68.300125;Plüpp;neu;17;Control;ER1WN_Plüpp;Mitfühlend+freundlich,;1;1
ER1WN;33.960345;Namistell;neu;19;Control;ER1WN_Namistell;Fehlinterpretation;1;1
ER1WN;59.16047;Wumeizauch;emo;10;Control;ER1WN_Wumeizauch;Loch im Kopf+Sieb+Brett vorm Kopf,;1;1
ER1WN;43.531355;Muschürdur;emo;6;Control;ER1WN_Muschürdur;Super+Freizeit+gute Planung+Respekt+Ollte sich jeder vornehmen+Umsetzung;1;1
ER1WN;40.02622;Enkmitas;emo;14;Control;ER1WN_Enkmitas;Schön+unbeschreiblich;1;1
ER1WN;56.68513;Faube;neu;26;Control;ER1WN_Faube;Englisch+Französisch+neue Herausforderung;1;1
ER1WN;33.64053;Bismirbiel;emo;13;Control;ER1WN_Bismirbiel;Schön+zufrieden+liebe +lachen+Erinnerungen;1;1
ER1WN;40.70452;Iberletsch;neu;23;Control;ER1WN_Iberletsch;Zufriedenheit+Überraschung+Karma+Zufall;1;1
ER1WN;36.144225;Mölauzegt;neu;21;Control;ER1WN_Mölauzegt;Feiern+Spaß+Krankheit;1;1
ER1WN;44.30169;Wupforau;emo;12;Control;ER1WN_Wupforau;toll+Reisebegeisterung+neuer Erleben;1;1
ER1WN;41.355375;Bingsemöl;neu;22;Control;ER1WN_Bingsemöl;muss an sich arbeiten;1;1
ER1WN;42.73281;Troff;neu;24;Control;ER1WN_Troff;Übung+Meister +Neuling+harte Arbeit;1;1
ER1WN;50.26232;Skibt;neu;18;Control;ER1WN_Skibt;Romantisch+Nähe+intensiv;1;1
ER1WN;35.80753;Ismiprämpf;emo;7;Control;ER1WN_Ismiprämpf;Selbstbild+Wahrnehmung+Emotionen+Rational;1;1
ER1WN;46.70314;Zimerhubst;emo;2;Control;ER1WN_Zimerhubst;Stolz+Fortschritt+Prozess;1;1
ER1WN;52.92544;Zwelde;emo;3;Control;ER1WN_Zwelde;Erster Kuss+schön+warmes Gefühl;1;1
ER1WN;24.58726;Wunicher;emo;27;Control;ER1WN_Wunicher;Menschlich+verständlich+Konfliktpotenzial;1;1
ER1WN;44.297535;Bisknirgo;emo;28;Control;ER1WN_Bisknirgo;Entspannung+zur Ruhe kommen,;1;1
ER1WN;40.1035;Glühm;neu;8;Control;ER1WN_Glühm;Schlechte Vergangenheit+Eher hoffen auf eine bessere Zukunft+Misstrauen+Individualität;1;1
ER1WN;42.23144;Weforshank;neu;16;Control;ER1WN_Weforshank;Kann auch ein Albtraum sein+schön+kommt selten vor;1;1
ER1WN;47.944675;Preier;emo;5;Control;ER1WN_Preier;Aufgeschlossen+ohne zu verstellen;1;1
ER1WN;38.22421;Neif;emo;1;Control;ER1WN_Neif;rücksichtsvoll+zuvorkommend;1;1
ER1WN;37.095735;Ferandsor;neu;29;Control;ER1WN_Ferandsor;Kann schön sein+mysteriös+ungenau;1;1
ER1WN;49.93355;Struk;neu;20;Control;ER1WN_Struk;Vorfreude+Familie+ersehnen;1;1
ER1WN;31.19472;Vul;neu;0;Control;ER1WN_Vul;Kindheitserinnerungen+Klingelzeichen;1;1
ER1WN;33.73827;Odef;neu;25;Control;ER1WN_Odef;Vorbereitung+Training;1;1
NF15AN;33.361;Wunicher;emo;27;Imagery;NF15AN_Wunicher;Kopfschmerzen +Unruhe +schwerer Atem +alles zieht sich zusammen +wird erst besser wenn es vorbei ist +Gedankenrasen +es wird nicht so schlimm wie man denkt +einfach machen +keine Lösung +Ablenkung ,;0;1
NF15AN;80.446;Häugnung;neu;11;Imagery;NF15AN_Häugnung;anstrengend+Stolz +Kreativität +Flopp +Erfolg +Idee muss sehr gut sein +an sich selbst glauben +Herausforderungen ,;1;1
NF15AN;19.133;Plüpp;neu;17;Imagery;NF15AN_Plüpp;besserwisserisch +lieb gemeint +manche Themen zu privat für ungefragte Ratschläge +Gespräch +oberflächlich +neue Ideen +fremde Leute +enge Familie und Freunde ,;0;1
NF15AN;39.446;Vul;neu;0;Imagery;NF15AN_Vul;Liebe +Warm ums Herz +Zeitlupe +Hoffnung +Moment genießen +Gedanken an Familie +vermissen +rührselig +Traurigkeit+Sehnen nach Zuneigung ,;0.666666667;1
NF15AN;57.149;Skibt;neu;18;Imagery;NF15AN_Skibt;smalltalk +unangenehm +lächeln +Vorfreude +Angst +nervig +Umweg +nett+potenzielle Freunde +verliebt +gleichgültig;0.333333333;1
NF15AN;47.044;Zwelde;emo;3;Imagery;NF15AN_Zwelde;hysterisch +nervig +unruhig +emotional unstabil +Angst was falsches zu sagen+schlechte Erfahrungen +aufmerksamkeitssuchend+Mittelpunkt +krank +Therapie ,;0;1
NF15AN;50.12;Mege;emo;15;Imagery;NF15AN_Mege;unruhig +denkt an nichts anderes mehr+blendet alles aus +peinlich +störend +sich blöd fühlend +Freude wenn man Wort wieder erinnert+Stille füllen;0;1
NF15AN;35.7;Ismiprämpf;emo;7;Imagery;NF15AN_Ismiprämpf;Gleichgültigkeit +cool +ist in Ordnung +bisschen Stolz +Glück für die Person +selbst unbetroffen +eher positives Gefühl +wie gut wurden Aufgaben gemacht+nur erledigen reicht meistens nicht+toll +Daumen hoch leichtes Grinsen;1;1
NF15AN;82.32;Rugliebast;emo;9;Imagery;NF15AN_Rugliebast;Liebe+Kindheit +Glück +Zufriedenheit +für Zukunft gut gewappnet +leider nicht bei allen so +jedes Kind hat die Liebe und Nähe und Wärme verdient +Mutter +Umarmung +Lachen +Sorglosigkeit +vermeiden von Störungen;0.333333333;1
NF15AN;34.42;Herklögen;emo;4;Imagery;NF15AN_Herklögen;englisch +spanisch +sprachkurs+fremdes Land +peinlich +Stille +Lachen +schwitzen +Vergleich mit anderen +stottern +rot werden ,;0;1
NF15AN;39.311;Bisknirgo;emo;28;Imagery;NF15AN_Bisknirgo;Liebe +glücklich +Vollkommenheit +Schwester+teilen macht glücklich +ansteckend+Welt ist schön +engere Bindung +Lächeln +Umarmung +warmes Herz ,;1;1
NF15AN;36.981;Namistell;neu;19;Imagery;NF15AN_Namistell;große Augen+Überraschung +Freude +Glück +Lachen +Aufräumen +nostalgisch +Kindheitserinnerungen +Tag ist besser +nicht vorhersehbar +das Leben ist schön;0;1
NF15AN;33.391;Glühm;neu;8;Imagery;NF15AN_Glühm;müde+Vorwurf +im Bett liegen bleiben +Stress +schöner Abend +Serien +Augen schließen +nicht ansprechbar ,;1;1
NF15AN;32.808;Neif;emo;1;Imagery;NF15AN_Neif;wie vom Blitz getroffen +energetisch +fernweh +grinsend +gute Zeit +hibbelig +Kind+Schmetterlinge im Bauch +Musik+Tanzen+Welt umarmen +Familie ,;0.666666667;1
NF15AN;71.342;Faube;neu;26;Imagery;NF15AN_Faube;Wut +Selbstverletzung +böse Gedanken +runter kommen +tief atmen +Neustart +Herausforderungen +Änderung +Selbstliebe +Herausfinden was Auslöser war ,;0.333333333;1
NF15AN;48.153;Wupforau;emo;12;Imagery;NF15AN_Wupforau;Zwangsstörung +Übung +Verbissenheit +anstrengend +zu viel +hohe Ansprüche an sich selbst +unglücklich +unentspannt +Druck von sich und anderen +angeben+harte Arbeit +ist es nicht Wert ,;0;1
NF15AN;40.09;Odef;neu;25;Imagery;NF15AN_Odef;Liebe +Verlangen +Filme +Spannung +peinlich +rot werden +Lippen +Herzschlag +Vorstellung +Freunde +Speichel +Schmatzen+unangenehm ,;1;1
NF15AN;30.055;Ferandsor;neu;29;Imagery;NF15AN_Ferandsor;Weltherrschaft +empowered +stark +Macht +Zufriedenheit +Stolz +Unabhängigkeit +Erwachsen sein +Lebensveränderung ,;0.666666667;0
NF15AN;56.336;Wumeizauch;emo;10;Imagery;NF15AN_Wumeizauch;Erwachsen werden +innere Zufriedenheit +Kindheit+mein früheres Ich wäre stolz auf mich +Motivation +Schulter klopfen +unabhängig +Leben ist vor einem +Selbstbestimmung +Lebensgeschichten;0;1
NF15AN;12.633;Preier;emo;5;Imagery;NF15AN_Preier;Romantisch +kribbeln im Bauch +elektrisch +Spannung +alles andere ist egal +Umwelt wird ausgeblendet +verführerisch +spielend+Film +peinlich +rot werden +geheimnisvoll ,;0.333333333;1
NF15AN;60.635;Bismirbiel;emo;13;Imagery;NF15AN_Bismirbiel;angespannt +nervig +keine Lust auf Gespräch +unwohles Gefühl +Straßenseite wechseln +kein Blickkontakt +schnell gehen+Lästerei chbar,In ,;0.333333333;1
NF15AN;63.626;Weforshank;neu;16;Imagery;NF15AN_Weforshank;Buddah +Entspannung +Tief Luft holen +Wind +einatmen +bewusst sein +Körper +Zeitlupe +glücklich +erholsam +Selbstliebe +Gedanken freien Lauf lassen;0;1
NF15AN;30.165;Troff;neu;24;Imagery;NF15AN_Troff;schlechte Vergangenheit +fehlende Aufarbeitung +Therapie +Reflexion +Annäherung +schwierig +leidend +andere haben größeren Einfluss auf Selbstwert+als man selbst rben ,;0.333333333;1
NF15AN;52.675;Muschürdur;emo;6;Imagery;NF15AN_Muschürdur;zwischen Schlaf und Wachheit +Trance +viele Gedanken +ausgeschlafen +Verwirrung +Suchen nach Botschaften +erholsam;1;1
NF15AN;75.482;Mölauzegt;neu;21;Imagery;NF15AN_Mölauzegt;wohlfühlend +schöne Zeit +gute Gespräche +Energie+über alte Zeiten reden +Geborgenheit +inspirierend +anstrengend +nervig +aufgesetzt freundlich sein +zusammen etwas unternehmen +lange nicht gese;1;1
NF15AN;26.746;Bingsemöl;neu;22;Imagery;NF15AN_Bingsemöl;wenig Selbstwert+andere sind wichtiger +falsche Einschätzung der eigenen Leistung +schlechtes Gefühl dafür gutes Gewissen +Manipulation +unnötige Zuvorkommenheit +anstrengend ,;0;1
NF15AN;40.015;Struk;neu;20;Imagery;NF15AN_Struk;Hunger +schlechte Laune +nicht beschreibbar+was es schlimmer macht +Verwirrtheit +unpassend +kein Grund +keine Kontrolle +niemanden zum beschuldigen;1;1
NF15AN;49.161;Enkmitas;emo;14;Imagery;NF15AN_Enkmitas;unentspannt +ungeduldig +Person kommt immer wenn man nicht guckt +schwitzen +langweilig +Zeitverschwendung +Aufregung +Vorfreude +Anspannung;0;1
NF15AN;15.526;Iberletsch;neu;23;Imagery;NF15AN_Iberletsch;ruhe+atem anhalten +angst +tür +kind+dieb +kerze+herzklopfen +alleine+genervt+h;1;1
NF15AN;54.352;Zimerhubst;emo;2;Imagery;NF15AN_Zimerhubst;nervös +Herzrasen +Szenarien +es kommt eh immer anders als gedacht +kein Selbstbewusstsein +keine innere Ruhe +Vorbereitung +üben wie man auftritt +Vorstellungsgespräch +wichtige Situationen ,;0;1
AO11DG;32.76751;Skibt;neu;18;Control;AO11DG_Skibt;verzweiflung;1;1
AO11DG;52.732045;Preier;emo;5;Control;AO11DG_Preier;aufregend+vorfreude;1;1
AO11DG;61.95067;Bismirbiel;emo;13;Control;AO11DG_Bismirbiel;enttäuscht+ungewissheit;1;1
AO11DG;73.197125;Bisknirgo;emo;28;Control;AO11DG_Bisknirgo;beeinflussbar;1;1
AO11DG;85.959215;Mege;emo;15;Control;AO11DG_Mege;schön;1;1
AO11DG;61.27445;Bingsemöl;neu;22;Control;AO11DG_Bingsemöl;überrascht;1;1
AO11DG;68.34264;Wunicher;emo;27;Control;AO11DG_Wunicher;sauer;1;1
AO11DG;53.22854;Herklögen;emo;4;Control;AO11DG_Herklögen;zuverlässig;1;1
AO11DG;83.969975;Muschürdur;emo;6;Control;AO11DG_Muschürdur;liebe+ewig;1;1
AO11DG;80.15397;Neif;emo;1;Control;AO11DG_Neif;bilingual;1;0
AO11DG;52.434405;Häugnung;neu;11;Control;AO11DG_Häugnung;emphatisch;1;1
AO11DG;75.530105;Ferandsor;neu;29;Control;AO11DG_Ferandsor;jackpot;1;0
AO11DG;53.070185;Vul;neu;0;Control;AO11DG_Vul;angst+müde+schwäche;1;1
AO11DG;56.560765;Zwelde;emo;3;Control;AO11DG_Zwelde;aufregend+freude;1;1
AO11DG;62.30286;Zimerhubst;emo;2;Control;AO11DG_Zimerhubst;lernen+reflektiert,;1;1
AO11DG;43.48102;Weforshank;neu;16;Control;AO11DG_Weforshank;zielstrebig+fokussiert;1;1
AO11DG;84.36176;Troff;neu;24;Control;AO11DG_Troff;gefühle+zweisamkeit+liebe+verliebt sein+kribbeln im bauch,;1;1
AO11DG;52.210545;Struk;neu;20;Control;AO11DG_Struk;oh oh;1;1
AO11DG;44.680015;Plüpp;neu;17;Control;AO11DG_Plüpp;stolz;1;1
AO11DG;70.67918;Mölauzegt;neu;21;Control;AO11DG_Mölauzegt;nichts;1;1
AO11DG;65.89552;Wumeizauch;emo;10;Control;AO11DG_Wumeizauch;angst+keine lust;1;1
AO11DG;54.61566;Odef;neu;25;Control;AO11DG_Odef;tod+liebe +glaube;1;0
AO11DG;57.678915;Enkmitas;emo;14;Control;AO11DG_Enkmitas;zurückhaltend+verschlossen+einsam;1;1
AO11DG;47.09679;Ismiprämpf;emo;7;Control;AO11DG_Ismiprämpf;lächeln;1;1
AO11DG;83.480045;Faube;neu;26;Control;AO11DG_Faube;ruhe+frieden+liebe+zweisamkeit;1;1
AO11DG;85.80703;Rugliebast;emo;9;Control;AO11DG_Rugliebast;feige;1;1
AO11DG;71.78834;Wupforau;emo;12;Control;AO11DG_Wupforau;depression+angst+tränen+hilflosigkeit,;1;1
AO11DG;44.598365;Namistell;neu;19;Control;AO11DG_Namistell;aufgeregt+kribbeln im bauch;1;1
AO11DG;68.11793;Iberletsch;neu;23;Control;AO11DG_Iberletsch;faul,;1;1
AO11DG;64.82641;Glühm;neu;8;Control;AO11DG_Glühm;aufregend+schwitzen+lampenfieber;1;1
SS28MH;24.287;Wunicher;emo;27;Imagery;SS28MH_Wunicher;unbefriedigend+Ungeduld+nervig +will man beenden,;1;1
SS28MH;42.717;Ferandsor;neu;29;Imagery;SS28MH_Ferandsor;Liebe+Anstregung+positiv+schön+motiviert+Hingabe+gerne+Erfüllung,;1;1
SS28MH;15.136;Rugliebast;emo;9;Imagery;SS28MH_Rugliebast;nervig+provozierend+ätzend+Eltern+Lehrer;0.333333333;1
SS28MH;20.516;Wupforau;emo;12;Imagery;SS28MH_Wupforau;empfindenchdenkenchmachen+mitfühlen,;0.666666667;1
SS28MH;13.015;Preier;emo;5;Imagery;SS28MH_Preier;schön+romantisch+plötzlich+spannend+aufwühlend+besonders;0.666666667;1
SS28MH;24.748;Zwelde;emo;3;Imagery;SS28MH_Zwelde;komisch+unbewusste Prozesse machen sich sichtbar+vermeiden+unangemehm;0;1
SS28MH;12.797;Häugnung;neu;11;Imagery;SS28MH_Häugnung;nervig+aggressiv+ungeduldigchdenken+suchen;1;1
SS28MH;27.16;Skibt;neu;18;Imagery;SS28MH_Skibt;gutes Gefühl+Teamarbeit+Hilfe+teilen,;1;1
SS28MH;12.663;Troff;neu;24;Imagery;SS28MH_Troff;Kuss+Händchen halten+Schoss sitzen+beschützen+trösten,;0.333333333;1
SS28MH;13.435;Namistell;neu;19;Imagery;SS28MH_Namistell;anstregend+fördernd+lernen+verbessern+weiterentwickeln+Englisch+Französisch +Schule+Ausland+Urlaub;1;1
SS28MH;16.183;Wumeizauch;emo;10;Imagery;SS28MH_Wumeizauch;Empathie+Filme+Serien+Freunde,;1;1
SS28MH;29.932;Bismirbiel;emo;13;Imagery;SS28MH_Bismirbiel;überraschend+freudig+Klamotten+Schubladen aufräumen,;0.666666667;1
SS28MH;5.814;Vul;neu;0;Imagery;SS28MH_Vul;negativ+anstrengend+quälend+müde+Trauer+Liebeskummer+Streit+Stress+Prüfung+Angst,;0.666666667;1
SS28MH;51.316;Neif;emo;1;Imagery;SS28MH_Neif;aufregend+Vorfreude+tolles Gefühl+ungeduldig,;0.666666667;1
SS28MH;68.929;Ismiprämpf;emo;7;Imagery;SS28MH_Ismiprämpf;selbst reflektierend+streng+sich selber verbessern+Fehler eingestehen+an sich arbeiten,;1;1
SS28MH;21.013;Glühm;neu;8;Imagery;SS28MH_Glühm;positiv+lernen+sicher beherrschen können;1;1
SS28MH;45.562;Zimerhubst;emo;2;Imagery;SS28MH_Zimerhubst;Mittel zum Zweck+Liebe+Anziehung,;1;1
SS28MH;44.697;Plüpp;neu;17;Imagery;SS28MH_Plüpp;positiv+verantwortungsbewusst+gut nachdenken+keine Kurzschlussreaktionen,;0.333333333;1
SS28MH;49.396;Odef;neu;25;Imagery;SS28MH_Odef;positiv+motivierend+Stolz+Sport+Uni +Persönlichkeit+Freunde+Familie+Ordentlich sein,;0.333333333;1
SS28MH;42.745;Muschürdur;emo;6;Imagery;SS28MH_Muschürdur;positiv oder negativ+Versuch Gespräch zu beginnen+Restaurant+Alte Bekannte;1;1
SS28MH;22.312;Faube;neu;26;Imagery;SS28MH_Faube;Alte Bekannte+Arbeitskollegen+Frühere Feinde,;1;1
SS28MH;17.452;Enkmitas;emo;14;Imagery;SS28MH_Enkmitas;schön +entspannt+stressfrei+selten+Wochenende+Partner/in+Therme+Ausflug+Urlaub;1;1
SS28MH;38.079;Mege;emo;15;Imagery;SS28MH_Mege;einsam+negativ;1;1
SS28MH;37.584;Bisknirgo;emo;28;Imagery;SS28MH_Bisknirgo;entspannt+schön+stressfrei+sorgenlos+ausgeschlafen+Frieden+Liebe+Freunde,;1;1
SS28MH;57.296;Bingsemöl;neu;22;Imagery;SS28MH_Bingsemöl;Ruhe+Entspannung+Stress vergessen+abschalten+Liebe+Glück+Freunde+Partner+Oma,;1;1
SS28MH;18.329;Mölauzegt;neu;21;Imagery;SS28MH_Mölauzegt;Negativ+Schwach+Zickig+Unsympathisch+Kindisch+Sich selbst belügen;0.666666667;1
SS28MH;33.662;Struk;neu;20;Imagery;SS28MH_Struk;unerklärlich+unangenehm+vermeiden,;1;1
SS28MH;28.229;Herklögen;emo;4;Imagery;SS28MH_Herklögen;schön+aufregend,;1;1
SS28MH;25.114;Weforshank;neu;16;Imagery;SS28MH_Weforshank;faul+ungewiss+unsicher+desinteressiert;0.333333333;1
SS28MH;43.996;Iberletsch;neu;23;Imagery;SS28MH_Iberletsch;stresig+anstrengend+kann nach hinten los gehen+immer und immer wieder+belastend,;1;1
HY4Kl;50.733705;Herklögen;emo;4;Control;HY4Kl_Herklögen;fehlende Informationen+beschaffen+informieren+Lücken schließen+Entscheidungen treffen+angehen+Informationen abwägen+schlechte Entscheidungen+Internet+Bücher+fragen,;1;1
HY4Kl;55.161105;Bisknirgo;emo;28;Control;HY4Kl_Bisknirgo;Engagement+Herzblut+zeitintensiv+Leidenschaft+freiwillig+intrinische Motivation+für andere+darin aufgehen+interessiert+sozial+erfolgreich;1;1
HY4Kl;11.23338;Wumeizauch;emo;10;Control;HY4Kl_Wumeizauch;unangenehm+Besserwisser+vermeiden+unsympathisch+aus dem Weg gehen+Diskussion+Streit+überzeugen+Individualität,;1;0
HY4Kl;27.848775;Rugliebast;emo;9;Control;HY4Kl_Rugliebast;Beziehungen+soziale Interaktionen+Menschen+Beeinflussung+beobachten+Verhalten ändernchdenken+Eltern anrufen+Empathie+wichtig+einsam;1;1
HY4Kl;11.380655;Wupforau;emo;12;Control;HY4Kl_Wupforau;Liebe+Gefühle+Beziehung+Schmetterlinge+neue Person+Neuanfang+sympatisch+sich mögen+kennenlernen+rosa rot+überraschend+ungeplant+Zufall+Schicksal;1;1
HY4Kl;24.064285;Bingsemöl;neu;22;Control;HY4Kl_Bingsemöl;überreagieren+unnötigchdenken+ändern+Emotionen+unkontrolliert+bereuen+weinen+Streit+Konflikt;1;1
HY4Kl;23.648635;Glühm;neu;8;Control;HY4Kl_Glühm;Fremdsprache+Fachwort+Frustrationchdenken+immer wieder durchgehen+aufregen+Kopf zerbrechen+kommt später wieder,;1;1
HY4Kl;0.783725;Weforshank;neu;16;Control;HY4Kl_Weforshank;Verantwortungsbewusstsein+Vertrauen+Zuverlässigkeit+sympatisch+darauf verlassen können+Gruppenarbeit+angenehm+weniger Arbeit+loben+Unterstützung+Absprachen einhalten+Ideen,;1;1
HY4Kl;19.21491;Odef;neu;25;Control;HY4Kl_Odef;Eltern+Beziehung+wichtig+Liebe+Nähe+Verbundenheit+sicher+Geborgenheit+Vertrauen+Kindheit;1;1
HY4Kl;20.215385;Häugnung;neu;11;Control;HY4Kl_Häugnung;anstrengend+Mühe+überlegen+Schwierigkeiten+fremd+unwohl+Training+Aussprache+Vokabeln+Hilfe+Übersetzer+Pons;1;1
HY4Kl;12.54927;Enkmitas;emo;14;Control;HY4Kl_Enkmitas;Empathie+warm+sympatisch+Übereinstimmung+Beeinflussung+sich einig sein+zusammen etwas machen+Zugehörigkeitsgefühl+Freunde+Arbeitskollegen+Filme+Verständnis+mitreißen lassen;1;0
HY4Kl;23.51475;Skibt;neu;18;Control;HY4Kl_Skibt;Zimmer aufräumen+schön+Erinnerungen+Kindheit+Geld+Glück+sich freuen+unerwartet+vermisst+Gefühle,;1;1
HY4Kl;40.71293;Zimerhubst;emo;2;Control;HY4Kl_Zimerhubst;Albtraum+Unwohlseinchdenken+Traurig sein+Erschöpfung+schlechte Stimmung+harter Tag+Bett+Sorgen+Stress+Klausurenphase,;1;1
HY4Kl;21.898425;Wunicher;emo;27;Control;HY4Kl_Wunicher;aufgeregt sein+überprüfen+Vorfreude+Koffer+Urlaub+Flugzeug+warten+ungeduldig+Anspannung+planen,;1;1
HY4Kl;22.11594;Mölauzegt;neu;21;Control;HY4Kl_Mölauzegt;Bewertung+Ideal Selbstchdenken+überarbeiten+überprüfen+urteilen+verbessern+hart sein+Abweichung+Handlungen+Gedanken,;0;1
HY4Kl;23.747775;Faube;neu;26;Control;HY4Kl_Faube;Training+üben+sich entwickeln+verbessern+Anfang+engagiert+Selbsttest+anstrengen,;1;1
HY4Kl;22.954415;Ismiprämpf;emo;7;Control;HY4Kl_Ismiprämpf;Berührung+unerwünscht+unterdrücken+fremde Person+Willen durchsetzen+Kellner+auf etwas hinweisen+interkulturelle Unterschiede+ziehen,;1;1
HY4Kl;25.548135;Plüpp;neu;17;Control;HY4Kl_Plüpp;Handlungen+Folgen+anstrengen+Gewissenhaftigkeit+Ansporn+Zukunft+Ziele+Training+Lernen+Prokrastinieren;1;1
HY4Kl;28.29393;Preier;emo;5;Control;HY4Kl_Preier;Zukunft+Studium+Ziele erreichen+konsequent sein+zufrieden sein+Stolz+etwas lohnt sich+anstrengen+dran bleiben+nicht aufgeben,;1;1
HY4Kl;25.013995;Ferandsor;neu;29;Control;HY4Kl_Ferandsor;Gespräch+anstarren+etwas wollen+Kontakt aufbauen+soziale Interaktion+Kellner+durchsetzen+Augen,;1;1
HY4Kl;34.95326;Struk;neu;20;Control;HY4Kl_Struk;unangenehm+unsympatische Person+aus dem Weg gehen+Ausreden suchen+Ex Freund+Streit+vermeiden+unschön+unwohl fühlen+Angst,;1;1
HY4Kl;32.30294;Vul;neu;0;Control;HY4Kl_Vul;Urlaub+Sauna+Entspannung+Seelenfrieden+Glück+Zufriedenheit+Ruhe+Frieden+Sonnenstrahlen+Meeresrauschen;1;1
HY4Kl;25.551815;Bismirbiel;emo;13;Control;HY4Kl_Bismirbiel;introvertiert+schwierig+einsam+sozial+Außenseiter+schüchtern+unverstanden+Rückzug+aus dem Weg gehen+Menschenmassen+Gruppen,;1;1
HY4Kl;42.021175;Neif;emo;1;Control;HY4Kl_Neif;Bett+morgens+Gelassenheit+Entspannung+guter Start+Sonne+Schöner Traum+gute Stimmung+erfrischt+spannend,;1;1
HY4Kl;31.64747;Muschürdur;emo;6;Control;HY4Kl_Muschürdur;Herzklopfen+Vertrauen+Geborgenheit+sozial+Interaktion+Eltern+Freunde+Partner+runter kommen+Stress abbauen+Unterstützung+Gespräche,;1;1
HY4Kl;26.936925;Iberletsch;neu;23;Control;HY4Kl_Iberletsch;Täuschung+vortäuschen+blenden+Sich verstellen+unehrlich+etwas schlecht machen+unsicher+Ausschluss+Ziele durchsetzen,;0.666666667;1
HY4Kl;26.680855;Namistell;neu;19;Control;HY4Kl_Namistell;Trauer+duster+Tränen+unaufhaltsam+soziale Unterstützung+Rückzug+Zuhause sein wollen+verstecken+Unwissen+negativ+Emotionen,;1;1
HY4Kl;29.04778;Zwelde;emo;3;Control;HY4Kl_Zwelde;Freunde+Postbote+Ungeduld+Vorfreude+etwas zieht sich+überprüfenchfragen+Zeit vergeht nicht+rumsitzen+Fenster+Tür;1;1
HY4Kl;29.913715;Mege;emo;15;Control;HY4Kl_Mege;abwarten+verstecken+vertan haben+unsicher+unerwünschter Besuch+unerwartet+Postbote+Klingel+hören+Couch,;1;0
HY4Kl;17.600795;Troff;neu;24;Control;HY4Kl_Troff;Vorstellungsgespräch+Trennungsgespräch+Nervösität+trainieren+wichtiger Termin+bedeutsam+Unruhe+Schwitzen+Herzrasen,;1;1
HN25DF;83.22;Glühm;neu;8;Control;HN25DF_Glühm;Ärger+Verzweiflung+Angestrengtes Nachdenken+liegt auf der Zunge+blöd;1;1
HN25DF;61.834;Zwelde;emo;3;Control;HN25DF_Zwelde;zielstrebig+Planung +diszipliniert;1;1
HN25DF;88.526;Iberletsch;neu;23;Control;HN25DF_Iberletsch;nervig+sieht keine Grenzen+kein Feingefühl+keine Akzeptanz+Wut;1;1
HN25DF;89.822;Skibt;neu;18;Control;HN25DF_Skibt;in andere hineinversetzten+Neid+Vergleich+Reflektion der eigenen Person;1;1
HN25DF;73.816;Weforshank;neu;16;Control;HN25DF_Weforshank;Aufregung+Unsicherheit+Vorfreude+weiche Knie+Schmetterlinge im Bauch+Gedanken;0.666666667;0
HN25DF;62.752;Bismirbiel;emo;13;Control;HN25DF_Bismirbiel;Menstruation +Ärger über sich selbst+Reflektion+Unverständnis,;1;1
HN25DF;87.458;Mege;emo;15;Control;HN25DF_Mege;Wut+Verzweiflung+Ärger+Augen rollen+Überlegung,;1;0
HN25DF;57.691;Häugnung;neu;11;Control;HN25DF_Häugnung;Bezugspersonen+Freunde+Vertrauen+Loayalität+Zuverlässigkeit;1;1
HN25DF;80.721;Troff;neu;24;Control;HN25DF_Troff;Liebe+Vertrauen+Bezugspersonen+Familie,;1;1
HN25DF;75.183;Neif;emo;1;Control;HN25DF_Neif;Unsicherheit+Angst Fehler zu machen +Training +Übung ,;1;1
HN25DF;89.022;Plüpp;neu;17;Control;HN25DF_Plüpp;Gefühl der Verbundenheit+Freudechempfinden+in den anderen hineinversetzten;1;1
HN25DF;89.891;Rugliebast;emo;9;Control;HN25DF_Rugliebast;Freude+aufregend+Erleichterung+Versteck,;1;1
HN25DF;65.046;Enkmitas;emo;14;Control;HN25DF_Enkmitas;müde+Gedanken+Augenringe+schwere Knochen+schwerfällige Bewegungen+Kaffee+Mittagsschlaf;1;1
HN25DF;78.906;Odef;neu;25;Control;HN25DF_Odef;Vorfreude+Packen+planen+buchen+Aufregung +hibbelig sein;1;1
HN25DF;83.932;Herklögen;emo;4;Control;HN25DF_Herklögen;Reflektion +ehrlich+Erwartung+Forderung an sich selbst +aufgeschlossen;1;1
HN25DF;46.165;Wumeizauch;emo;10;Control;HN25DF_Wumeizauch;Übung+Training+Meister+Sicherheit+Vertrauen +zeitintensiv;1;1
HN25DF;88.779;Wupforau;emo;12;Control;HN25DF_Wupforau;Liebe+Partner+Durchsetzen+Verlangen+vertraut;1;1
HN25DF;88.278;Mölauzegt;neu;21;Control;HN25DF_Mölauzegt;Reflektion +bewusst über eigene Taten+Objektivität+positiv+Kopfmensch;1;1
HN25DF;67.944;Muschürdur;emo;6;Control;HN25DF_Muschürdur;Vorwissen+Vertrauen in sich selbst+Freude+Zufriedenheit+Rückblick+Ziel erreicht;1;1
HN25DF;56.792;Struk;neu;20;Control;HN25DF_Struk;Zufall+unangenehm+Stille+Unsicherheit+Forderung;1;1
HN25DF;57.575;Vul;neu;0;Control;HN25DF_Vul;Feigheit +Trotz+Ausweichen+Flucht+unreif+wegrennen,;1;0
HN25DF;84.535;Faube;neu;26;Control;HN25DF_Faube;zu Hause+Familie+Freunde+Partner+Liebe+Vertrauen+glücklich+frei+leicht;1;1
HN25DF;86.71;Bingsemöl;neu;22;Control;HN25DF_Bingsemöl;einsam+introvertiert+Versteck+Angst+Unsicherheit;1;1
HN25DF;70.172;Wunicher;emo;27;Control;HN25DF_Wunicher;Freude+Lachen+Gemütlich+kuschelig+warm+weich+schlafen;1;1
HN25DF;54.144;Preier;emo;5;Control;HN25DF_Preier;Partner+Liebe+Zu Hause+Vertrauen+Beziehung+Familie;1;1
HN25DF;76.578;Ferandsor;neu;29;Control;HN25DF_Ferandsor;unehrlich+Spiel+nicht vertrauenswürdig+Situation zum eigenen Vorteil ausnutzen;1;1
HN25DF;89.809;Bisknirgo;emo;28;Control;HN25DF_Bisknirgo;Depression+Verzweiflung+Menstruation+weinen+Trost+zittern;1;1
HN25DF;64.13;Zimerhubst;emo;2;Control;HN25DF_Zimerhubst;Aufregung+Freude+hibbelig,;1;1
HN25DF;41.538;Ismiprämpf;emo;7;Control;HN25DF_Ismiprämpf;dumm+faul+unkooperativ,;1;1
HN25DF;72.048;Namistell;neu;19;Control;HN25DF_Namistell;Aufregung+Panik+Schweiß+Unsicherheit+Angst;1;1
PO20DF;67.171;Bisknirgo;emo;28;Imagery;PO20DF_Bisknirgo;unzufrieden+Suche+ungeduldig+nervös+enttäuscht;1;1
PO20DF;42.68;Wupforau;emo;12;Imagery;PO20DF_Wupforau;Mut+Zeit aufbringen+wichtige Sachen verschieben+Stolz+Zufriedenheit+Zielstrebigkeit+100 Prozent,;1;1
PO20DF;34.079;Vul;neu;0;Imagery;PO20DF_Vul;nervig+wütend+keine Lust+ungewollte Gedankenspiele+missachten+befolgen+nicht nochmal+kostet Kraft+unzufrieden+zufrieden;1;1
PO20DF;75.463;Faube;neu;26;Imagery;PO20DF_Faube;alarmierend+gespannt+staunen+ängstlich+erschrocken+zufrieden+glücklich+sehenswertchmachen+lernen,;1;1
PO20DF;31.08;Muschürdur;emo;6;Imagery;PO20DF_Muschürdur;Hoffnung+Freude+Vertrauen+Anspannung+Freunde+Gedanken+sicher+unsicher+bereit+unentschlossen;1;1
PO20DF;37.847;Odef;neu;25;Imagery;PO20DF_Odef;Wut Trauer ausversehen Problem nicht so wichtig Ausbruch schreien rot werden;1;1
PO20DF;37.653;Herklögen;emo;4;Imagery;PO20DF_Herklögen;Schande+Nervenkitzel+Vorfreude+Anspannung+nervöschdenklich+traurig+Missachtung+unbedingt;1;1
PO20DF;40.713;Wunicher;emo;27;Imagery;PO20DF_Wunicher;vertrauensvoll+Freund+Familie+Partner+sorglos+freie Gedanken+entspannt+sicher;1;1
PO20DF;18.854;Weforshank;neu;16;Imagery;PO20DF_Weforshank;Wärme+Glück+Zufriedenheit+Geborgenheit+weich+schön+ Liebe+Zuneigung+sich kümmern;1;1
PO20DF;47.122;Iberletsch;neu;23;Imagery;PO20DF_Iberletsch;Spaß+lernen+Entäuschung+Glück+Belohnung+neue Bekanntschaften+Freunde+Weiterentwicklung+schwer+Aussprache+einfach+lustig+interessant+Hintergrund+Entstehung;1;1
PO20DF;43.397;Mölauzegt;neu;21;Imagery;PO20DF_Mölauzegt;Freude+Trauerchvollziehen+Verständnis+Betroffenheit+Scham+Gllü;1;1
PO20DF;29.683;Enkmitas;emo;14;Imagery;PO20DF_Enkmitas;Glück+erstaunen+Erleichterung+Gedächtnislücke geschlossen+zufrieden+sorglos;1;1
PO20DF;14.896;Bingsemöl;neu;22;Imagery;PO20DF_Bingsemöl;betrunken+ Angst+Müdigkeit+unfähig+Probleme+Gedanken+Krankheit,;1;1
PO20DF;26.396;Namistell;neu;19;Imagery;PO20DF_Namistell;viel Zeit investiert+erschöpft+erleichtert+Vorfreude+warten+ungeduldig+Geselligkeit,;1;1
PO20DF;36.064;Häugnung;neu;11;Imagery;PO20DF_Häugnung;besser+schlechter+woher+Gefühle+Gedanken+Überlegungen+Dauer;1;1
PO20DF;33.315;Glühm;neu;8;Imagery;PO20DF_Glühm;Aufwand+lernen+Antrieb+Reiz+Glück+Stolz+schwitzen+Üben+begeistert+Hindernisse;1;1
PO20DF;33.624;Wumeizauch;emo;10;Imagery;PO20DF_Wumeizauch;Drang+Wille+Versuchung+spüren+eilig+Problem+Liebe,;1;1
PO20DF;22.398;Neif;emo;1;Imagery;PO20DF_Neif;Erkenntnis+traurig+glücklich+unentschlossen+Angst+lernen+Erfahrung;0.666666667;1
PO20DF;30.288;Zimerhubst;emo;2;Imagery;PO20DF_Zimerhubst;Stolz+Mut+Kraft+selbstbewusst+glücklich+Ansporn+Eigeninitiative+sicher+entschlossen+ohne Ablenkung+Eifer+Zeit;1;1
PO20DF;35.548;Preier;emo;5;Imagery;PO20DF_Preier;Hoffnung+Ausweg+Umwegchdenklich+überlegen+Lösung,;1;1
PO20DF;17.181;Skibt;neu;18;Imagery;PO20DF_Skibt;Wunsch+Gegenmaßnahmen+verstecken+nicht melden+Handy aus+alleine sein+zögern+Unwohlsein+Gedanken+Wut+Trauer;1;1
PO20DF;36.772;Mege;emo;15;Imagery;PO20DF_Mege;Entspannung+schlafen+ruhig atmen+Wärme+Freunde+gelassen+kein Stress+wenige Gedanken+Kein Streit+loslassen;1;1
PO20DF;39.422;Ismiprämpf;emo;7;Imagery;PO20DF_Ismiprämpf;unsicher+ängstlich+Einzelkämpfer+stark+schüchtern+Trauer+hilflos,;1;0
PO20DF;18.736;Zwelde;emo;3;Imagery;PO20DF_Zwelde;Freude Zeit leider schon vorbei nochmal träumen wieso aufgewacht Kopfgrübeln warum? Bedeutung Ent;1;1
PO20DF;47.781;Rugliebast;emo;9;Imagery;PO20DF_Rugliebast;Wärme+fallen lassen+Freude+glücklich+entspannt+sorgenfrei+Spaß+gute Gespräche+offenes Ohr+Problembewältigung+kein Stress,;1;1
PO20DF;30.463;Struk;neu;20;Imagery;PO20DF_Struk;Scham+zurückstecken+schlau+Taktik;1;1
PO20DF;21.056;Ferandsor;neu;29;Imagery;PO20DF_Ferandsor;abgeschlagen+fix und fertig+alleine sein+Kälte+Leerechdenklich+Sinn;1;1
PO20DF;7.047;Plüpp;neu;17;Imagery;PO20DF_Plüpp;Vorfreude+Anspannung+Gedanken+gut+schlecht+nervös+entspannt+Ideen+spannend+aufgeregt+Zeit vergeht langsam,;1;1
PO20DF;25.564;Troff;neu;24;Imagery;PO20DF_Troff;gespannt+ungeduldig+Ausdauer+Fragen+entspannt+Taktik+aufmerksam+bereit;1;1
PO20DF;32.78;Bismirbiel;emo;13;Imagery;PO20DF_Bismirbiel;Vorstellungsgespräch+Bewerbung+Jahresgespräch+Schule+Arbeit+Lehrer+Chef+verkrampft+angespanntsse Hände+Gedanken;1;1
MK8MR;45.4906;Iberletsch;neu;23;Control;MK8MR_Iberletsch;frutriert+Ärger+genervt+aufgeben+hinterfragen+Puzzleteil;1;1
MK8MR;89.836885;Häugnung;neu;11;Control;MK8MR_Häugnung;anstrengend+Arbeit+sinnvoll+gutes Gewissen+zufrieden+erstrebenswert;1;1
MK8MR;58.075855;Mege;emo;15;Control;MK8MR_Mege;Ärger+ungefragt+hilflos+ausgeliefert+Flucht+vermeiden,;1;1
MK8MR;40.750105;Odef;neu;25;Control;MK8MR_Odef;Erinnerung+abschauen+Hilfe+abfärben+Verbundenheit;1;0
MK8MR;62.016465;Muschürdur;emo;6;Control;MK8MR_Muschürdur;beängstigrend+neu+undsicher+spannendS;1;1
MK8MR;70.061705;Vul;neu;0;Control;MK8MR_Vul;Ärger+Wut+ohne Kontrolle+hilflos+ausgeliefert+schuldbewusst+übertrieben;1;1
MK8MR;88.27841;Rugliebast;emo;9;Control;MK8MR_Rugliebast;Ärger+Blamage+Vorführeffekt+verrückt machen+Selbstvorwurf+rastlos,;1;0
MK8MR;68.795845;Preier;emo;5;Control;MK8MR_Preier;beruhigend+entspannung+Arbeitsteilung+fair+Rückhalt+nicht alleine;0.666666667;0
MK8MR;51.0598;Wumeizauch;emo;10;Control;MK8MR_Wumeizauch;wunderschön+einzigartig+Verbindung+Nähe+Körperwärme+Liebe+Geborgenheit+Halt+Familie;1;0
MK8MR;42.96378;Mölauzegt;neu;21;Control;MK8MR_Mölauzegt;peinlich+Fehler+ungewollte Aufmerksamkeit+Sorgen+überprüfen+Lücken;1;1
MK8MR;42.08099;Ismiprämpf;emo;7;Control;MK8MR_Ismiprämpf;Emotionen+Empathie+nicht allein+Verbindung+bewusst werden;1;0
MK8MR;59.34965;Glühm;neu;8;Control;MK8MR_Glühm;Überraschung+Freude+neu+unerwartet++egal;1;0
MK8MR;72.699435;Enkmitas;emo;14;Control;MK8MR_Enkmitas;müde+antrieblos+Kopfschmerzen+keine klaren Gedanken+Sorgen+Angst,;1;1
MK8MR;88.67514;Bismirbiel;emo;13;Control;MK8MR_Bismirbiel;Erwartung+Freude+sich sammeln+mentale Vorbereitung+aufgeregt+nervös+Packliste+Sorgen;1;1
MK8MR;61.80883;Struk;neu;20;Control;MK8MR_Struk;kritisch+Zweifel+überlegen+Gedanken,;1;0
MK8MR;20.53052;Namistell;neu;19;Control;MK8MR_Namistell;lernen+Sicherheit+Kontrolle+vorausschauen+Pflicht+mühsam;1;1
MK8MR;61.11676;Zimerhubst;emo;2;Control;MK8MR_Zimerhubst;zucken+unangebracht+zurück halten+unter Kontrolle+unangenehm+Bedürfsnis;1;1
MK8MR;87.836125;Ferandsor;neu;29;Control;MK8MR_Ferandsor;Bereuen+Zweifel+harte Erkenntnis+Enttäuschung über mich selbs;1;1
MK8MR;37.167515;Wupforau;emo;12;Control;MK8MR_Wupforau;Ziel erreicht+Genugtuung+erleichtert+Stolz+bewerten+Rückblick+Freude;1;0
MK8MR;38.63219;Bingsemöl;neu;22;Control;MK8MR_Bingsemöl;Kommunikation+Zeichen+Verbindung+Wunsch+unangenehm;1;1
MK8MR;63.286055;Plüpp;neu;17;Control;MK8MR_Plüpp;Panik+Flucht+nervös+Ausreden+gedankenlos;1;0
MK8MR;76.54343;Bisknirgo;emo;28;Control;MK8MR_Bisknirgo;Etspannt+Ruhig+Wunschlos glücklich,;1;1
MK8MR;36.03971;Zwelde;emo;3;Control;MK8MR_Zwelde;unangenehm+Flucht+Vorsichtig+schlechtes Gewissen+alleine sein wollen;1;0
MK8MR;45.13142;Troff;neu;24;Control;MK8MR_Troff;Harmonie+Glückseeligkeit+Angekommen+Motivation+Frieden;1;1
MK8MR;30.25854;Neif;emo;1;Control;MK8MR_Neif;Ruhe+Schutz+ich selbst sein+lachen+Freundschaft+Familie;1;1
MK8MR;37.84485;Herklögen;emo;4;Control;MK8MR_Herklögen;Lügen+manipulieren+unehrlich+unangenehm+unausgesproches+verbergen;1;1
MK8MR;32.22446;Wunicher;emo;27;Control;MK8MR_Wunicher;hilflos+leer+Verwirrung+Fragen+ergründen wollen+melancholisch;1;0
MK8MR;28.31114;Weforshank;neu;16;Control;MK8MR_Weforshank;Vorfreude+leicht genervt+nervös+ungeduldig+rastlos+bestimmt Gedanken,;1;1
MK8MR;29.36372;Faube;neu;26;Control;MK8MR_Faube;Panik+schlechtes Gewissen+Bedenken+abwarten+unsicher;1;0
MK8MR;32.784965;Skibt;neu;18;Control;MK8MR_Skibt;Aufregung+Anspannung+Kontrolle+zittern+Adrenalin+Angst;1;0
SF23KD;81.26073;Glühm;neu;8;Imagery;SF23KD_Glühm;Gedankenkreisen+Entfremdung+Unruhe+Anspannung+steif+unentspannt+aufgewühlt+rastlos+hilflos+beengt+kein Körperkontakt+im Kopf feststecken+kein Ausweg+anstrengend+ziellos;1;1
SF23KD;83.426095;Bingsemöl;neu;22;Imagery;SF23KD_Bingsemöl;Energie+Fokus+Lust+Wollen+Eifer+Freude+Spaß+Leichtigkeit und Fokus+Flow+Gut+Fotschritt+Entwicklung+Wachstum+Neugier+Herausforderung+Stärke+Kreativität;1;1
SF23KD;89.180305;Struk;neu;20;Imagery;SF23KD_Struk;will ich nicht wissen+Wut+Groll+unangenehm+überfordernd+Grenzüberschreitend+dankbark+interessant+hab ich nicht gewusst+hilfreich+uninteressant+was soll das+Irritation+genervt sein;1;1
SF23KD;83.44278;Ismiprämpf;emo;7;Imagery;SF23KD_Ismiprämpf;Wärme+Nähe+Geborgenheit+Sehnsucht+haben wollen+Glück+Leichtigkeit+Sinn+Verbundenheit+Körperlichkeit+schön,mehr davon;1;1
SF23KD;83.58291;Vul;neu;0;Imagery;SF23KD_Vul;Ahnung+Freude+Unbehagen+Spannung+Gelassenheit+Zuversicht+angenehm+unangenehm+Erwartung+Erkenntnis+Gewissheit,;1;1
SF23KD;88.917485;Enkmitas;emo;14;Imagery;SF23KD_Enkmitas;Trigger+unangenehm+angenehm+Kontollverlust+Muster+Aufregung+automatisch+getrieben+vermeidung+Drang+Unruhe+hilflos+überraschend;1;1
SF23KD;89.933485;Wumeizauch;emo;10;Imagery;SF23KD_Wumeizauch;verdammt+ich habs gleich+ich weiß es doch+unruhe+erwartungsvoll+aufgeregt+unruhig+erregt+gespannt+hibbeligchdenklich+wehement;1;1
SF23KD;81.77845;Mege;emo;15;Imagery;SF23KD_Mege;Mega+toll+Respekt+wow+Erfolg+Stolz+Freude+Erleichterung+Stärke+Freiheit+Luft+Ziel errecih;1;1
SF23KD;88.396505;Bismirbiel;emo;13;Imagery;SF23KD_Bismirbiel;warm ums Herz+Nähe+Geborgenheit+Kindheit+Familie+Vertrauen+Sicherheit+mir kann nichts passieren+die Welt ist in Ordnung+schön+leicht,verzückt+freudig+besselt+beglückt+magisch+Heimat+Hoffnung+ohn Worte;1;1
SF23KD;87.10338;Mölauzegt;neu;21;Imagery;SF23KD_Mölauzegt;peinlich+ohjeee+wo ist das Loch im Boden+schlecht+Scham+Belustigung+Unsicherheit+Verdrängung+Vermeidung+Stopp+ich will nicht+doof+sich klein fühlen+dumm vorkommen;1;1
SF23KD;75.871995;Namistell;neu;19;Imagery;SF23KD_Namistell;Freude+Leichtigkeit+Überraschung+Nähe+Verbundenheit+das Leben ist schön+Dankbarkeit+genießen+feiern+schön+großartig+genial+Wärme;1;1
SF23KD;89.95531;Weforshank;neu;16;Imagery;SF23KD_Weforshank;ohhh+Freude+Überraschung+erstaunen+innehalten+strhlen+lächeln+Dankbarkeit+Verwunderung+beglückt+beseelt+im Hier und Jetzt+gedankenversunken,Glück+warm erregt+euphorisch;1;1
SF23KD;84.577195;Neif;emo;1;Imagery;SF23KD_Neif;Müde+schwach träge+gleichgültig+melancholisch+k.o.+in sich ruhend+zufrieden und unzufrieden+Stiummungswechsel+Vorwurf+nörgenlnde Gedanke+egal+neuer Tag neues Glück+mach ich morgen+Genuss und schlechtes;1;1
SF23KD;86.546375;Wupforau;emo;12;Imagery;SF23KD_Wupforau;Aufgrenung+Spannung+Freiheit+Drang+Abenteuer+Hier und Jetzt+Genießen+Spaß+Freizeit+Kreativität+andere Kultur+Wissensdrang+Entdeckerfreude+Adrenalin+Grenzen testen+entdecken+loslassen+weniger denken mehr tun;1;1
SF23KD;80.491885;Zwelde;emo;3;Imagery;SF23KD_Zwelde;scheiße+nervt mich+warum geht das nicht besser+Frust+Wut+Unruhe+Unbehagen+platzen können+wohin mit mir,genervt sein,;1;1
SF23KD;76.46102;Herklögen;emo;4;Imagery;SF23KD_Herklögen;Perfektinosmuss+unnötig+cant stop it,Zwang+Wut+Frustration+Ergeiz+erschöpfung+Unmut+genervt+enttäuscht+wollen;1;1
SF23KD;74.378235;Preier;emo;5;Imagery;SF23KD_Preier;Lust+Freude+Verlangen+Spaß+Maßlosigkeit+körperliche Nähe+Befriedigung+schön+warmh+intensiv+stark+Sog+Verbunden sein+stillstand+Moment+genießen+kein Gedanke an gleich+Fantasie;1;1
SF23KD;89.39946;Troff;neu;24;Imagery;SF23KD_Troff;+Stolz+Freude+Erleichterung+Sicherheit+Stärke+Hoffnung+Glaube+Fokus+angenehm+gut+sehr gut+ich kann das schaffen+gut gemacht+ich sthe für mich eine+mehr davon+Ziel erreichen+Freiheit;1;1
SF23KD;41.269815;Iberletsch;neu;23;Imagery;SF23KD_Iberletsch;Stolz+Freude+Stärke+Fokus+Leichtigkeit+Lebensfreude+Selbstbewusstein+Vertrauen+Fähigkeit+gut+verbunden+sicher+groß+grenzenlos+angenehm+merh davon+schön+zufrieden+gelassen+glücklich;1;1
SF23KD;67.000045;Plüpp;neu;17;Imagery;SF23KD_Plüpp;Hoffnungsvoll+aufgeregt+erregt+leidenschaftlich+Erwatung+wollen+unsicher+verlegen+erregt+verliebt;1;1
SF23KD;57.594865;Odef;neu;25;Imagery;SF23KD_Odef;unangenehm+Vermeidung+will ich nicht+Verdrängung+Höflichkeit+Respekt+Scham+Schuld+Bitte nicht+Bauchgrummeln+keine Konftontaktion+Konflitkvermeidung,;1;1
SF23KD;89.73107;Zimerhubst;emo;2;Imagery;SF23KD_Zimerhubst;Frei+friedlich+zufrieden+Stille+sorglos+schwerelos+angenehm+weich+leicht+halten wollen+mehr davon+Glück+Hier und Jetzt+grenzenlos+ich sein+keine Bewertung;1;1
SF23KD;43.2155;Faube;neu;26;Imagery;SF23KD_Faube;Unsicher+Vorsichtigt+unentspannt+Anspannung,Scham+Angst+Vermeidung+angepasst sein+Gefallen wollen+Angst vor Ablehnung und Zurückweisung+schwach+labil+ohne Selbstbewusstein+abhängig;1;1
SF23KD;89.517405;Skibt;neu;18;Imagery;SF23KD_Skibt;+schön+unreal+zurückwollen+nicht richtig wach werden wollen+gedankenversunken+was war das+unangenehm+verdränung+ flaues Gefühl+orientierungslos+warum träume ich sowas+was will mir das sagen+will ich n;1;1
SF23KD;70.655;Muschürdur;emo;6;Imagery;SF23KD_Muschürdur;chillen+vertraut+schön+entspannt+angenehm;1;1
SF23KD;78.40932;Wunicher;emo;27;Imagery;SF23KD_Wunicher;misst+verdammt+schade+was soll ich tun+hin und her+Gedanken kreisen+richtig und falsch+warum heute+ich würde so gerne+Vernunft+Gewissen+Zwiespalt,abwägen+unsicher+traurig+neidisch+berdauernd,;1;1
SF23KD;51.240505;Ferandsor;neu;29;Imagery;SF23KD_Ferandsor;Fragezeichen+warum+wieso+woher+unangenehm+Sorge+Unsicherheit+Verwirrung+egal+mal schauen+keine Ahnung+doof+nervig+komisch+mal abwarten+jemanden Fragen+sich Gedanken machen+abwartennu+Verwunderung+angenehm+irrtiert;1;1
SF23KD;62.812215;Häugnung;neu;11;Imagery;SF23KD_Häugnung;Unruhe+abgelenkt+Unsicherheit+Anspannung+unnötig+kann es nicht lassen+Kontrolle+Angst zu verpassen+unentspannt+nervig;1;1
SF23KD;88.98664;Rugliebast;emo;9;Imagery;SF23KD_Rugliebast;fuck+nicht jetzt+wer ist das+kein Bock+Vermeidung+Unlust+Aufregung+unangenehm+abwarten+Nervosität+Starre+verharren+Hoffnungsvoll sein;1;1
SF23KD;77.556685;Bisknirgo;emo;28;Imagery;SF23KD_Bisknirgo;strategisch+plannen+Überblick+Kontrolle+Sicherheit+Souverenität+Planung+gut+hilfreich+Struktur+stark+Klarheit;1;1
BM1DG;43.251;Herklögen;emo;4;Imagery;BM1DG_Herklögen;Panik+unrealistisch+Worst case scenario +übertrieben +Angst +muss darüber reden,;0.666666667;0
BM1DG;56.665;Iberletsch;neu;23;Imagery;BM1DG_Iberletsch;Stress+Anstrengung+Zweifel +nicht immer lohnenswert+Risiken +Motivation+ehrgeizig+überzeugt;1;1
BM1DG;40.733;Muschürdur;emo;6;Imagery;BM1DG_Muschürdur;hilfreich+verwirrt+ungewohnt+überraschend+Abwechslung+neue Menschen kennenlernen+Zufall;1;0
BM1DG;37.282;Zwelde;emo;3;Imagery;BM1DG_Zwelde;schön+Freude+Empathie+Neid+will auch,;1;0
BM1DG;41.484;Vul;neu;0;Imagery;BM1DG_Vul;Intuition+inneres Gefühl+neu+ungewohnt+Vorfreude+spannend+gespannt,;0.666666667;0
BM1DG;40.864;Faube;neu;26;Imagery;BM1DG_Faube;sicher gehen wollen+empfindlich+übervorsichtig +hypersensibel,;1;0
BM1DG;28.198;Bingsemöl;neu;22;Imagery;BM1DG_Bingsemöl;Frust +Verwirrung+nervig+aufgeregt sein +Vortrag +andere Sprache,;1;1
BM1DG;24.93;Bisknirgo;emo;28;Imagery;BM1DG_Bisknirgo;stolz+beruhigt+nimmt Last weg+Freude+Hut ab +danke,;1;0
BM1DG;37.046;Wupforau;emo;12;Imagery;BM1DG_Wupforau;unkonditionierte Liebe+besondere Verbindung+einzigartig+bedeutungsvoll+schön+wichtig+berührt,;0.666666667;0
BM1DG;39.268;Odef;neu;25;Imagery;BM1DG_Odef;Unwohlsein+Angst+Mündliche Prüfung+Ausland+Urlaub+Blamage,;1;0
BM1DG;63.014;Häugnung;neu;11;Imagery;BM1DG_Häugnung;empathie+menschlich+Glücklich;1;1
BM1DG;25.814;Enkmitas;emo;14;Imagery;BM1DG_Enkmitas;schön+Überraschung+angenehm +Ändert Stimmung+nicht erwartet,;1;0
BM1DG;34.885;Preier;emo;5;Imagery;BM1DG_Preier;komisch+Müdigkeit+Unproduktivität+aggressiv+gereizt+Verlangen nach Schlaf+Augen halb zu +Reue;1;0
BM1DG;51.58;Troff;neu;24;Imagery;BM1DG_Troff;Fernweh+Glück+Tapetenwechsel+aufgeregt+neu+Errinnerungen +Euphorie +Highlight;1;0
BM1DG;56.985;Wunicher;emo;27;Imagery;BM1DG_Wunicher;unbefriedigend+stressig+negativ+verschlimmert psychische Gesundheit+Verzweiflung+Veränderung +Teufelskreis,;1;1
BM1DG;36.152;Struk;neu;20;Imagery;BM1DG_Struk;Zwang+unzufrieden+Frust+Perfektionsdrang+ermüdet+genervt+Konkurrenzkampf,;1;1
BM1DG;18.865;Rugliebast;emo;9;Imagery;BM1DG_Rugliebast;+Lust +Herzklopfen+angespannt+Verlangen +manchmal unerreichbar+Frust +warten,;0;1
BM1DG;57.1;Glühm;neu;8;Imagery;BM1DG_Glühm;+Freiheit+Macht+fühlt sich gut an+freier Wille+unabhängig +stark;1;1
BM1DG;41.328;Wumeizauch;emo;10;Imagery;BM1DG_Wumeizauch;Selbstbestimmtheit+angenehm+Stärke+selbstbewusst+stärkes Selbstwertgefühl,;1;1
BM1DG;70.232;Ferandsor;neu;29;Imagery;BM1DG_Ferandsor;aufregend +frustrierend+Angst+Spannung+Ungeduld+Reue+Verschwinden+Flirt;1;0
BM1DG;30.547;Weforshank;neu;16;Imagery;BM1DG_Weforshank;unangenehm+Angst vor Konfrontation+Stress+nervig+möchte meine Ruhe+angespannt,;1;1
BM1DG;45.532;Zimerhubst;emo;2;Imagery;BM1DG_Zimerhubst;Ruhe+Frieden+ungewohnt+innere Anspannung+Freiheit chdenken +Gedanken freilassen,;1;1
BM1DG;25.063;Ismiprämpf;emo;7;Imagery;BM1DG_Ismiprämpf;frustrierend+Zwiespalt+Zweifel +unentschlossen+Risiko +Isolation+skeptisch +misstrauisch,;1;0
BM1DG;41.984;Neif;emo;1;Imagery;BM1DG_Neif;Verwirrung+Realität und Traum +zwiegespalten +angenehm+unangenehm,;1;1
BM1DG;89.885;Mölauzegt;neu;21;Imagery;BM1DG_Mölauzegt;+Sicherheit+familiär+angenehm+Orientierung +bin beruhigt+Komfortzone+Gespräche+Ungezwungen;1;0
BM1DG;31.551;Namistell;neu;19;Imagery;BM1DG_Namistell;zwiegespalten+Abwägung+schade+Reue+Höflichkeit,;1;1
BM1DG;58.879;Plüpp;neu;17;Imagery;BM1DG_Plüpp;besorgt+Hypochondrie+Angst+verwirrt+Panik +Keine Erklärung+Google;1;1
BM1DG;75.483;Bismirbiel;emo;13;Imagery;BM1DG_Bismirbiel;Anspannung+komisches Gefühl+Ungeduld+langweilig+abhängig,;1;1
BM1DG;58.733;Mege;emo;15;Imagery;BM1DG_Mege;Anspannung+wer ist da+Verlangen nach Ruhe+unangenehm+stört mich,;1;0
BM1DG;70.835;Skibt;neu;18;Imagery;BM1DG_Skibt;Anspannung+Tagträume +unrealistisch+Kontrolle+planen+Sicherheit+,;1;0
BD13RN;55.048;Neif;emo;1;Imagery;BD13RN_Neif;negativ+grübeln+auf und ab gehen+nicht schlafen können+negative Gedanken+Bauchschmerzen+Frust+Gedanken kreisen+Unwohlsein+zittrig+Übelkeit+verminderte Konzentrationsfähigkeit,;0.666666667;1
BD13RN;29.445;Häugnung;neu;11;Imagery;BD13RN_Häugnung;Aufregung+Spannung+anstrengend+erschöpft+Freude+unsicher+frustriert;1;1
BD13RN;29.495;Wupforau;emo;12;Imagery;BD13RN_Wupforau;Besserwisserisch+ungefragt+aufdrängen+genervt+sauer+Interessiert mich nicht+sich um die eigenen Probleme kümmern,;1;1
BD13RN;33.623;Struk;neu;20;Imagery;BD13RN_Struk;wärme+liebe+freude+spannung+intim+liebevoll+schön+schmetterlinge im bauch;0;1
BD13RN;46.63;Faube;neu;26;Imagery;BD13RN_Faube;Vorfreude+Aufregung+Spannung+Sehnsucht+Hoffnung+Freude+Angst,;1;1
BD13RN;28.207;Preier;emo;5;Imagery;BD13RN_Preier;Aufregung +negative oder positive Freude+Stimmungshebend+Stimmung schl;1;1
BD13RN;54.604;Bisknirgo;emo;28;Imagery;BD13RN_Bisknirgo;Nachdenken+grübeln+sich ärgern+lässt einen nicht in Ruhe+Gedanken kreisen+sich Vorwürfe machen,;1;1
BD13RN;19.111;Skibt;neu;18;Imagery;BD13RN_Skibt;Nerd+schlechtes Gewissen+aufgeschoben+Streber+diszipliniert+faul,;1;1
BD13RN;26.373;Muschürdur;emo;6;Imagery;BD13RN_Muschürdur;Freude+liebevoll+wärme+Vertrautheit,;1;1
BD13RN;21.974;Glühm;neu;8;Imagery;BD13RN_Glühm;nervös+peinlich+verlegen+kommt sich dumm vor+achtet auf Fehler+traut sich nicht+zittrig+schwitzen+unsicher,;1;1
BD13RN;36.781;Namistell;neu;19;Imagery;BD13RN_Namistell;Freude+Hoffnung+lachen+aufgeregt+Spannung,;1;1
BD13RN;37.147;Bismirbiel;emo;13;Imagery;BD13RN_Bismirbiel;positiv+erfreulich+unerwartet+fröhlich+überraschend,;1;1
BD13RN;37.861;Zimerhubst;emo;2;Imagery;BD13RN_Zimerhubst;erschöpft+missmutig+schlecht gelaunt+gereizt+träge+müde+unwohlsein,;1;1
BD13RN;16.248;Ferandsor;neu;29;Imagery;BD13RN_Ferandsor;Freude+Aufregung+Spannung +lachen+gute Laune,;1;1
BD13RN;26.311;Rugliebast;emo;9;Imagery;BD13RN_Rugliebast;Frust+Gereiztheit+Unzufriedenheit+traurig+schlecht gelaunt+wütend+missmutig+beschämt+frustriert+weinen,;1;1
BD13RN;14.277;Bingsemöl;neu;22;Imagery;BD13RN_Bingsemöl;Frust+Genervtheit+missmutig+schlecht gelaunt+wütend,;0.666666667;1
BD13RN;25.271;Ismiprämpf;emo;7;Imagery;BD13RN_Ismiprämpf;aufregung+Verlangen+intim+Spannung+Sehnsucht+verliebt+Schmetterlinge im Bauch+nervös+zittrig;1;1
BD13RN;38.008;Zwelde;emo;3;Imagery;BD13RN_Zwelde;Freude+Aufregung+Spannung+Selbstbewusst+Last fällt ab,;1;1
BD13RN;29.423;Weforshank;neu;16;Imagery;BD13RN_Weforshank;Freude+Stolz+Spannung+Aufregung+lachen+glücklich,;1;1
BD13RN;43.405;Herklögen;emo;4;Imagery;BD13RN_Herklögen;aufregend +spannend+nervös+unsicher+zittrig+Schmetterlinge im Bauch+Freude+gute Laune,;1;1
BD13RN;25.395;Iberletsch;neu;23;Imagery;BD13RN_Iberletsch;genervt+missmutig+gereizt+schlecht gelaunt+Unbehagen+Bauchschmerzen;1;1
BD13RN;19.448;Vul;neu;0;Imagery;BD13RN_Vul;Gelassenheit+Ruhe+Frieden+frei+unabhängig+ausgeglichen+entspannt,;1;1
BD13RN;27.846;Troff;neu;24;Imagery;BD13RN_Troff;unsicher+traurig+Misstrauen+Vertrauensbruch+vorsichtigiv+schüchtern+sensibel+zurückgezogen,;0.333333333;1
BD13RN;30.248;Wunicher;emo;27;Imagery;BD13RN_Wunicher;gedankenverloren+versucht sich an den Traum zu erinnern+Freude oder Angst je nach Traum+zittrig+schläfrig+erschöpft,;1;1
BD13RN;29.441;Wumeizauch;emo;10;Imagery;BD13RN_Wumeizauch;Behaglichkeit+Freude+Gemeinschaft+Interesse+wohl sein+lachen+Austausch+aufgeregt,;1;1
BD13RN;32.339;Mege;emo;15;Imagery;BD13RN_Mege;frustriert+niederschmetternd+traurig+unbeholfen+deprimiert+freudlos+unmotiviert+schlapp,;0.666666667;1
BD13RN;30.239;Mölauzegt;neu;21;Imagery;BD13RN_Mölauzegt;überraschtchdenklich +unwohl,;1;1
BD13RN;25.756;Enkmitas;emo;14;Imagery;BD13RN_Enkmitas;wartend+nervös+aufgeregt+spannung+verminderte Konzentrationsfähigkeit ,;1;1
BD13RN;41.99;Odef;neu;25;Imagery;BD13RN_Odef;Aufregung+Gereiztheit+Genervtheit+Angst+Grübeln+still sein+Hoffnung,;1;1
BD13RN;40.69;Plüpp;neu;17;Imagery;BD13RN_Plüpp;nervös+aufgeregt+Konzentriertheit+Gedanken kreisen+zittrig+bestimmt,;1;1
RG9DF;44.069;Skibt;neu;18;Control;RG9DF_Skibt;hoffnung+energie+spannung+herausforderung+aufgabe+unterstützung+job+kollegen+umzug+konflikt+kommunikation+telefonat+besprechen,;1;1
RG9DF;39.874;Wumeizauch;emo;10;Control;RG9DF_Wumeizauch;engagement+freude+herzblut+planung+ereignis+gemeinschaft+verbesserung+neuheit+erlebnis+individualisieren+werkzeuge+zeit,;1;1
RG9DF;46.836;Bisknirgo;emo;28;Control;RG9DF_Bisknirgo;abwägen+sichtweisen+erfahrungen+perspektiven;0.333333333;1
RG9DF;30.163;Weforshank;neu;16;Control;RG9DF_Weforshank;beobachtung+freude+neid+stolz+eifersucht+neugier+empathie+trauer,;0;0
RG9DF;38.043;Ferandsor;neu;29;Control;RG9DF_Ferandsor;date+freude+schmetterlinge+ausflug+studium+hobbys+angst vor scheitern+merkwürdig+schicksal+zufall+wing man,;1;1
RG9DF;32.102;Neif;emo;1;Control;RG9DF_Neif;menschlich+warmherzig+freude+trauer+ekel+angst+kalt+warm+therapie+urangst+prägung+erziehung;1;1
RG9DF;24.534;Bingsemöl;neu;22;Control;RG9DF_Bingsemöl;diskussion+battle+erklärung+umschreibung+enttäuschung+fachbegriff+pelzig+ach+wie heißt es noch,;1;1
RG9DF;21.912;Odef;neu;25;Control;RG9DF_Odef;vertrauen+sicherheit+freude+erleichterung+job+aufgabe+ziele+erfahrung sammeln +erfahrung anwenden,;0;1
RG9DF;30.075;Muschürdur;emo;6;Control;RG9DF_Muschürdur;nähe+vertrauen+bindung+ausflug+urlaub+gemeinsame zeit+familie+warm+sonnig+freude+hoffnung,;1;1
RG9DF;29.23;Zimerhubst;emo;2;Control;RG9DF_Zimerhubst;besonderheit+stolz+kommunikation+begabung+erziehung+auslandsurlaub+kultur+spanien+england/amerika;0.333333333;1
RG9DF;46.498;Preier;emo;5;Control;RG9DF_Preier;empathie+nächstenliebe+freundschaft+anteilnahme+vorgesetzter+job+therapie+partnerschaft+wa;0;1
RG9DF;54.026;Enkmitas;emo;14;Control;RG9DF_Enkmitas;überraschung+erwartung+verlust+geld+schlüssel+liebe+fussel+dreck,;1;0
RG9DF;47.406;Faube;neu;26;Control;RG9DF_Faube;ausgelaught+sorgen+gedanken+konzentrationsschwäche+unterstützung+hoffnung+freunde+partner+schicksalsereignis ,;0;1
RG9DF;26.907;Mölauzegt;neu;21;Control;RG9DF_Mölauzegt;listen+packen+planung+vorfreude+urlaub+strand+sonne+flug+autofahrt+motorradurlaub+berge+strand+gepäck,;1;1
RG9DF;41.136;Iberletsch;neu;23;Control;RG9DF_Iberletsch;erwartung+druck+energie+erlebnis+erfahrung+ziel+positiv/+negativ+psyche+ziel erreichen;1;1
RG9DF;36.55;Mege;emo;15;Control;RG9DF_Mege;routine+freude+erfahrung+herausforderung+lernen+job+besprechung+versammlung+hobby+verbessern+fähigkeiten lernen+schule+sport,;1;1
RG9DF;29.22;Wunicher;emo;27;Control;RG9DF_Wunicher;date+partner+fremde+nähe+distanz+zärtlichkeit+bein+schulter+hand+kino,;1;1
RG9DF;31.894;Herklögen;emo;4;Control;RG9DF_Herklögen;job+befugnis+freude+angst+selbstvertrauen+erfahrung+lernen+zweifel+erleichterung+rat holen,;0.333333333;1
RG9DF;31.942;Struk;neu;20;Control;RG9DF_Struk;herausforderung+entwicklung+chance+erkenntnisse+job+familie+stolz+schule+zufrieden+geld,;1;1
RG9DF;24.461;Bismirbiel;emo;13;Control;RG9DF_Bismirbiel;einkaufen+hobby+spazieren+hund gassi+gemeinsamkeit+schwimmen+fahrstuhl+sport+verein,;0.666666667;1
RG9DF;24.176;Vul;neu;0;Control;RG9DF_Vul;angst+scham+unlust+familie+fremde+feier+großveranstaltung+flucht,;1;1
RG9DF;25.579;Zwelde;emo;3;Control;RG9DF_Zwelde;ruhe+gelassenheit+entspannung+drogen+freundschaft+partnerschaft+schlaf+traum+Familie+Kuscheln+zärtlichkeit,;1;1
RG9DF;37.205;Rugliebast;emo;9;Control;RG9DF_Rugliebast;angst+abstand+isolation+introvertiert+ruhe+stress+erfahrungen+erwartungen+fremde personen+keller+kalt,;1;0
RG9DF;42.741;Glühm;neu;8;Control;RG9DF_Glühm;fit+erwartung+entspannung+energie+hoffnung+warm+empfindung+erneut erleben wollen+realisieren+teilen,;1;1
RG9DF;30.552;Plüpp;neu;17;Control;RG9DF_Plüpp;entspannung+partner+vertrauen+bindung+warm+zeitlos+vermissen,;1;1
RG9DF;55.697;Häugnung;neu;11;Control;RG9DF_Häugnung;lügen +neid+nicht aufrichtig+angst+verletzt sein+erfolgsdruck+job+politik+verhandlung+daten(neuer Partner),;1;1
RG9DF;27.245;Wupforau;emo;12;Control;RG9DF_Wupforau;sorge+angst+trauer+todesfall+trennung+familie+verlust+zukunftsangst+veränderung;0.666666667;1
RG9DF;50.309;Namistell;neu;19;Control;RG9DF_Namistell;vorfreude+kindheit+weihnachten+großeltern+besuch+freundin+partnerin+date+wohnung putzen+stress+zeitplanung+parkplatz+öpnv,;0;1
RG9DF;33.936;Troff;neu;24;Control;RG9DF_Troff;faul+langeweile+post+kirchechbar+stadt+schlafen,;0.333333333;1
RG9DF;36.571;Ismiprämpf;emo;7;Control;RG9DF_Ismiprämpf;angst+präsentation+vortrag+konflikt+große aufgabe+job+management+übung+routine+selbstvertrauen+vorbereitung,;0;0
SS5HN;84.479885;Preier;emo;5;Imagery;SS5HN_Preier;unwohl+nicht schlafen können+angespannt,;1;1
SS5HN;33.300355;Glühm;neu;8;Imagery;SS5HN_Glühm;Stolz+Motivation+Aufregung+Nervosität+Unsicherheit+Mut,;1;1
SS5HN;24.59091;Neif;emo;1;Imagery;SS5HN_Neif;zuvorkommend+aufmerksam+nervig+aufdringlich+mansplaining,;1;0
SS5HN;48.48918;Bisknirgo;emo;28;Imagery;SS5HN_Bisknirgo;Freude für die Personen+Gedanke an geliebte Person+Neid,;1;1
SS5HN;26.959715;Rugliebast;emo;9;Imagery;SS5HN_Rugliebast;Vorfreude+Neugierde+aufgeregt+demotiviert,;1;0
SS5HN;12.22325;Bingsemöl;neu;22;Imagery;SS5HN_Bingsemöl;kann negativ oder positiv sein+Motiviert+überreagieren+Vorsorge+streiten+Angst vor Konsequenzen bei Nichtreagieren;1;1
SS5HN;21.872505;Mege;emo;15;Imagery;SS5HN_Mege;unangenehm+wenn man nervös ist+Gedächtnis+angespannt+nervig;1;1
SS5HN;37.08476;Troff;neu;24;Imagery;SS5HN_Troff;dankbarkeit+Arbeit+Haushalt+Stolz+zufrieden,;1;1
SS5HN;19.07291;Faube;neu;26;Imagery;SS5HN_Faube;Familie+Liebe+Bezugspersonen+Stolz+nicht selbstverständlich;1;0
SS5HN;25.21203;Plüpp;neu;17;Imagery;SS5HN_Plüpp;überfordert+peinlich berührt+stottern+eigentlich nichts schlimmes+mangelndes Selbstbewusstsein;1;1
SS5HN;25.79095;Ismiprämpf;emo;7;Imagery;SS5HN_Ismiprämpf;Stolz+bei Freunden intensiver,;1;0
SS5HN;48.74975;Muschürdur;emo;6;Imagery;SS5HN_Muschürdur;Serotoninboosttur+Geld+im sozialen Miteinander+bessere Laune,;1;0
SS5HN;32.219245;Odef;neu;25;Imagery;SS5HN_Odef;müde+schwere Augen+schlechte Stimmung+schlecht geschlafen+Kater+unproduktiver Tag+Gliederschmerzen+Kopfschmerzen+unmotiviert;1;1
SS5HN;31.327655;Wumeizauch;emo;10;Imagery;SS5HN_Wumeizauch;als Kind+Vorfreude auf Erfahrungen+nervös,;1;1
SS5HN;25.715165;Zwelde;emo;3;Imagery;SS5HN_Zwelde;menschlich+Frustration+wütend+ehrgeiz+verbissen+Misserfolge+Traurig;0.666666667;0
SS5HN;25.94693;Weforshank;neu;16;Imagery;SS5HN_Weforshank;Durchhaltevermögen+Ehrgeiz+verbissen+Ungeduld+man muss nicht alles können,;0.666666667;0
SS5HN;13.463225;Namistell;neu;19;Imagery;SS5HN_Namistell;Liebe+Aufgeregt+Spannung+Vorfreude+Vorstellung+physische Nähe,;0.666666667;1
SS5HN;15.535235;Häugnung;neu;11;Imagery;SS5HN_Häugnung;Stolz+Selbstbestimmt+erleichterung+Vorfreude auf Ergebnis+nervosität+unsicherheit,;1;1
SS5HN;23.546715;Bismirbiel;emo;13;Imagery;SS5HN_Bismirbiel;mental health+an Aufgaben wachsen+glücklich+Prioritäten setzen+Wunsch Eyrolg;0.333333333;0
SS5HN;25.24946;Skibt;neu;18;Imagery;SS5HN_Skibt;Aufregung+Unsicherheit+Vorfreude+Mut+intensiv,;1;1
SS5HN;12.07148;Mölauzegt;neu;21;Imagery;SS5HN_Mölauzegt;Anspannung+unangenehm+genervt von Person+eigentlich albern,;1;1
SS5HN;63.48514;Herklögen;emo;4;Imagery;SS5HN_Herklögen;entspannung+glücklich+Kopf frei machen+Gesundheit,;1;0
SS5HN;15.530985;Wupforau;emo;12;Imagery;SS5HN_Wupforau;vorsichtig+unangenehm+bedrückend+soziales Problem+schwierig Freundschaften;1;0
SS5HN;21.420465;Struk;neu;20;Imagery;SS5HN_Struk;Müde+verwirrt+unvollständige erinnerungen+traurig+interessant+Schlaf+Verarbeitung;1;1
SS5HN;25.49001;Enkmitas;emo;14;Imagery;SS5HN_Enkmitas;sich wohlfühlen+Geborgenheit+Freude+Spaß miteinander+das Gefühl haben ehrlich sein zu können+Freundschaft+oberflächliche Freundschaften,;1;1
SS5HN;40.574815;Iberletsch;neu;23;Imagery;SS5HN_Iberletsch;aus Nettigkeit+weil man sich nicht traut es anzunehmen+oft bereut man es+aus Respekt+weil man nicht gierig/ unhöflich wirken will+Dankbarkeit;1;1
SS5HN;81.73614;Wunicher;emo;27;Imagery;SS5HN_Wunicher;physisch oder psychisch+positiv oder negativ+überrascht+besorgt,;1;1
SS5HN;28.614445;Zimerhubst;emo;2;Imagery;SS5HN_Zimerhubst;Vorfreude+Aufgeregt sein+Fürsorge+Neugierde+Ungeduld;1;1
SS5HN;29.76252;Ferandsor;neu;29;Imagery;SS5HN_Ferandsor;Scham+will alleine seinback+genervt von Person+unangenehm;1;1
SS5HN;NA;Vul;neu;0;Imagery;SS5HN_Vul;Nervosität+Unsicherheit+Sicherheit schaffen+Peinlichkeit vermeiden,;1;1
AD18MH;84.485;Wupforau;emo;12;Control;AD18MH_Wupforau;Übelkeit+Angst+Schlimmes könnte passieren+Wie ein Vulkan+Sorge+Wunsch+es könnte schon vorbei sein+nicht stillsitzen können;1;1
AD18MH;53.996;Struk;neu;20;Control;AD18MH_Struk;Investition+Angst zu versagen +Passion+Leidenschaft+sich etwas Hingeben+Hoffnung etwas zu erreichen+Erwartung+Etwas Schaffen wollen;1;1
AD18MH;54.218;Bisknirgo;emo;28;Control;AD18MH_Bisknirgo;Unangenehm+Oft durch ältere Personen+Jemand hört einem zu+Man will sich nicht unbedingt an den Rat halten+Peinlich;1;1
AD18MH;59.849;Ismiprämpf;emo;7;Control;AD18MH_Ismiprämpf;Schön+Man freut sich für andere+Die Haut wird Warm+man muss lächeln,;1;1
AD18MH;56.728;Rugliebast;emo;9;Control;AD18MH_Rugliebast;Erwartung+Nähegefühl+Verpflichtend+Nett sein wollen;1;1
AD18MH;63.733;Bingsemöl;neu;22;Control;AD18MH_Bingsemöl;Schlechte Vorerfahrungen+Gereizt sein+Schlechten Tag gehabt+Schon Kleinigkeiten stören+Gestresst+Man will Ruhe+Angst etwas Schlimmes könne passieren;1;1
AD18MH;40.183;Zwelde;emo;3;Control;AD18MH_Zwelde;Nervig+Anstrengend+Unangenehm im Gespräch+Liegt einem auf der Zunge+Man will wissen+was das Wort ist+Erleichterung+wenn jemand das Wort nennt;1;1
AD18MH;47.886;Faube;neu;26;Control;AD18MH_Faube;Interessant+Vergleich zu sich selbst+Fleiß der anderen Person;1;1
AD18MH;59.886;Häugnung;neu;11;Control;AD18MH_Häugnung;Einzigartige Bindung+Vertrauen+Liebe+Wärme+Sorge+Kümmern um das Kind+Eltern als wichtigste Bezugsperson+Beschützt sein+Geborgen sein+Kind ist versorgt;1;1
AD18MH;47.52;Enkmitas;emo;14;Control;AD18MH_Enkmitas;Unsicherheit+Rotwerden+Peinlich+Blamage+Bloßgestellt werden+Still sein+Ruhig bleiben+Nonverbal kommunizieren+Als müsste man etwas präsentieren+Hemmung;1;1
AD18MH;37.799;Ferandsor;neu;29;Control;AD18MH_Ferandsor;Warm+Fröhlich+Etwas gutes ist passiert+Feiern wollen+Lächeln+Die Welt ist schön!,;1;1
AD18MH;53.122;Odef;neu;25;Control;AD18MH_Odef;Unerwartet+Geld in der Jackentasche+Positiver Vorhersagefehler+Endlich passiert etwas Gutes+Schön;1;1
AD18MH;39.606;Wunicher;emo;27;Control;AD18MH_Wunicher;Müde+Geborgen+im Bett liegen+Warm+Kuschelig+Etwas lesen+der Körper ist Schwer+Müde Augen;1;1
AD18MH;40.056;Mölauzegt;neu;21;Control;AD18MH_Mölauzegt;Kaum abwarten können+nicht stillsitzen können+man hat lange gewartet+endlich geht es los+man ist vorbereitet+schaut auf die Uhr+lächeln+Aufregung,;0.666666667;1
AD18MH;50.355;Plüpp;neu;17;Control;AD18MH_Plüpp;Nichterreichen eines Zieles+Nichteinhalten der Ideale+Man schafft etwas nicht+Man hätte es besser gekonnt+Wut+Traurig+Enttäuscht+Einsam+Schreien wollen+Schuldgefühle+Warum habe ich das gemacht?;1;1
AD18MH;51.888;Skibt;neu;18;Control;AD18MH_Skibt;Versagen+Angst zu Versagen+Perfektionismus+Im Kreativen+Gefühl Versager zu sein+Ich muss das schaffen+Man wird immer schlechter;1;1
AD18MH;38.594;Vul;neu;0;Control;AD18MH_Vul;In die Augen blicken+Dinner+Liebe+Romantik+Erotik+Nähe+Annähern +Kontakt;1;1
AD18MH;48.254;Neif;emo;1;Control;AD18MH_Neif;Davor Sorge+Endlich frei+Erleichterung+Man schafft etwas+Odef;1;1
AD18MH;64.402;Muschürdur;emo;6;Control;AD18MH_Muschürdur;stolz+Erfolg+Beruf+Bildung+Charakter+Entwicklung+Ziele Erreichen+Ein besserer Mensch werden;1;1
AD18MH;69.69;Wumeizauch;emo;10;Control;AD18MH_Wumeizauch;Unangenehm+Aufregend+Lächeln+Schnell weggucken+In der Öffentlichkeit+Flirten+Schüchtern sein;1;1
AD18MH;49.113;Mege;emo;15;Control;AD18MH_Mege;Unangenehm+Peinlich+Verstecken+Authoritäten+umständlich;1;1
AD18MH;59.598;Troff;neu;24;Control;AD18MH_Troff;Frei+Unabhängig+Verstand ist frei+Man muss nichts tun+Verpflichtungslos+Ruhig+Still+Sicher+Geborgen,;1;1
AD18MH;57.967;Herklögen;emo;4;Control;AD18MH_Herklögen;Angst+Minderwertigkeitsgefühle+Distanziert sein+Vorsichtig sein+wenig über sich reden+Abstand halten+Misstrauen+Eifersucht;1;1
AD18MH;59.901;Bismirbiel;emo;13;Control;AD18MH_Bismirbiel;Interessant+Oft bedrohlich +Anderen Erzählen+Traumtagebuch+Verstehen wollen;1;1
AD18MH;61.612;Preier;emo;5;Control;AD18MH_Preier;Geborgenheit+Sicherheit+Entspannt+Austausch+Angenehm+Zusammen Kochen+Zusammen Essen+Spaß haben+vertraut sein;1;1
AD18MH;66.672;Iberletsch;neu;23;Control;AD18MH_Iberletsch;Kann unangenehm sein+Aber auch Gefühl der Selbstwirksamkeit vermitteln+Für höhere Ziele handeln+Enttäuscht;1;1
AD18MH;58.552;Glühm;neu;8;Control;AD18MH_Glühm;Warum?+Unsicher+Unangenehm+Wunderlich+Ängstlich+Ursachen suchen;1;1
AD18MH;58.513;Namistell;neu;19;Control;AD18MH_Namistell;Nervös+Hoher Besuch+Soll nicht schiefgehen+Wann ist die Person endlich da?+Zwanghaft+Ängstlichchschauen+Kaum Abwarten können;1;1
AD18MH;26.187;Zimerhubst;emo;2;Control;AD18MH_Zimerhubst;Peinlich+Unangenehm+Verstecken+Vorhänge zuziehen+Leise sein+nicht gehört werden wollen+Unangenehm+Aus dem Weg gehen Wollen;1;1
AD18MH;50.128;Weforshank;neu;16;Control;AD18MH_Weforshank;Nervosität +Wichtige Gespräche+Angst sich zu versprechen+Telefonieren+Vorbereitet sein wollen+Wiederholen+Alles Vorbereiten;1;1
GI23ON;33.47368;Odef;neu;25;Control;GI23ON_Odef;Grübeln+Nervosität+aufgeregt seinchdenken+Vergesslichkeit+Anspannung+Innere Unruhe+Gefühl der Beklommenheit,;1;1
GI23ON;36.31121;Herklögen;emo;4;Control;GI23ON_Herklögen;Stärken+Fähigkeiten+unter Beweis stellen+Stärken nutzen+Dinge in die Tat umsetzen,;1;1
GI23ON;29.97092;Mege;emo;15;Control;GI23ON_Mege;Überflüssig+nett gemeint+Fremde+Freunde+situationsabhängig+Selbstständigkeit+Tipp,;1;1
GI23ON;48.83296;Enkmitas;emo;14;Control;GI23ON_Enkmitas;Hochzeit beobachten +schönes Gefühl+Film anschauen+typisches Drama+Wohlwollen+Mitfühlen+Liebe+Freude+Mitgefühl z;0.666666667;1
GI23ON;69.13338;Ismiprämpf;emo;7;Control;GI23ON_Ismiprämpf;zukünftig+Wege kreuzen sich erneut+Bekanntschaften schließen+Freundechbarn+Wegbegleiter+gutes Gefühl+sympathische Person+über den Weg laufen;0.333333333;1
GI23ON;49.63782;Weforshank;neu;16;Control;GI23ON_Weforshank;Reiz und Reaktion+unüberlegt handeln+spontanes Handeln+Anstoß zum Handeln +aktiv werden,;1;1
GI23ON;45.43202;Rugliebast;emo;9;Control;GI23ON_Rugliebast;Sprichwörter+Fremdwörter+peinlich berührt+Pause+Leere im Kopf+Grübelnchdenken+man ärgert sich+Unruhe+Stottern +Schweigen+Raten,;0.666666667;1
GI23ON;15.34403;Iberletsch;neu;23;Control;GI23ON_Iberletsch;Stolz+Zufriedenheit+etwas erreichen+Wohlwollen+Fleiß+harte Arbeit+mitfühlen+seinen Nächsten wertschätzen+aufmerksam sein,;1;0
GI23ON;36.885955;Häugnung;neu;11;Control;GI23ON_Häugnung;Liebechwuchs+Zuneigung+Zärtlichkeit+glücklich+zufrieden+von Liebe erfüllt+warmes Gefühl+Zusammen sein+Nähe zeigen +Genuss+Babys+Eltern+Familie+Großeltern,;1;1
GI23ON;35.075195;Troff;neu;24;Control;GI23ON_Troff;Fehler+Versprechen+Wortfindungsstörung+peinlich berührt sein+gehemmt sein+Angst haben+Fremde +Zweifel ,;1;1
GI23ON;38.443485;Bismirbiel;emo;13;Control;GI23ON_Bismirbiel;Nächstenliebe+Freunde+Familie+in andere rein fühlen+sich für andere freuen+Mitgefühl+gute Neuigkeiten+Glück+Zufriedenheit+warmes Gefühl+Freude+Wohlwollen,;0.333333333;0
GI23ON;31.360125;Wunicher;emo;27;Control;GI23ON_Wunicher;Freude+Glück+schönes Gefühl+wie Weihnachten+Geld finden+Winterjacke+glücklich sein+zufrieden sein+sein Glück teilen+überrascht sein+unerwartet;1;1
GI23ON;32.056155;Skibt;neu;18;Control;GI23ON_Skibt;Müde+Verschlafen+Träge+schlechter Start in den Tag+Feiern gehen+Party+Netflix+schlechtes Gewissen+Schläfrig+Mittagsschlaf,;0.666666667;1
GI23ON;56.79008;Neif;emo;1;Control;GI23ON_Neif;Urlaub+Verreisen+Wiedersehen+Abenteuer+Neues entdecken+Aufgeregt+positiv+Vorfreude+glücklich+Entspannen+Sehnsucht+Fernweh;1;1
GI23ON;41.179365;Wupforau;emo;12;Control;GI23ON_Wupforau;Enttäuschung+negative Gedanken+Unzufriedenheit+selbstkritisch+geringes Selbstwertgefühl+streng sein+Emotionen+Ärger,;1;0
GI23ON;52.27493;Zimerhubst;emo;2;Control;GI23ON_Zimerhubst;Fleiß+Zwang+Perfektionismus+hoher Anspruch an sich selbst+üben+Unruhe+übertreiben+Pause gönnen+Ansporn+Ziel+Ermüden,;1;1
GI23ON;36.825735;Bingsemöl;neu;22;Control;GI23ON_Bingsemöl;Knutschen+Partner +Partnerin+aufgeregt sein+Liebe+Leidenschaft+Lippen+Nervosität+neue Erlebnisse+Schmetterlinge im Bauch+Herzrasen+erhöhter Puls+Freund+Freundin,;1;1
GI23ON;37.2609;Preier;emo;5;Control;GI23ON_Preier;Stolz+Evalutation+Rückblick+Zufriedenheit+Entwicklung+Entschluss+gefasst sein+zu seiner Entscheidung stehen,;1;1
GI23ON;55.67747;Glühm;neu;8;Control;GI23ON_Glühm;Stolz+Zufriedenheit+Zukunft+Erfolg+Rückblick+Evalutation+seinen Weg gehen+gutes Gefühl,;1;1
GI23ON;47.001245;Bisknirgo;emo;28;Control;GI23ON_Bisknirgo;Schüchternheit+Liebe+Leidenschaft+Zufriedenheit+Fremde+Kennen lernen+Herzrasen+Anziehung+Nervosität+etwas Neues erleben,;1;1
GI23ON;43.547405;Zwelde;emo;3;Control;GI23ON_Zwelde;Nachbarn+unangenehmes Gefühl+aus dem Weg gehen+die längste Schlange an der Kasse+Ungeduld+Unwohlsein+unsympathisch+Umwege+Vermeidung,;1;0
GI23ON;41.036715;Namistell;neu;19;Control;GI23ON_Namistell;selten+Handy+Stille+unerreichbar sein+Genießen+warmes Gefühl+sich wohl fühlen+Zur Ruhe kommen+Meditation+Geist und Körper+zufriedenheit,;1;0
GI23ON;44.153975;Struk;neu;20;Control;GI23ON_Struk;aus Erfahrungen lernen+Vergangenheit+schlechtes Gefühl+negative Erfahrung+gezeichnet sein+Vergangenheit loslassen+offen sein,;1;1
GI23ON;32.006095;Plüpp;neu;17;Control;GI23ON_Plüpp;Träumen+wach werden+Erinnerungen+Gedanken+Alpträume+schöne Träume+Gefühle+Gefühlszustand,;1;1
GI23ON;26.72192;Vul;neu;0;Control;GI23ON_Vul;Freunde+Familie+Partner+schöne Zeiten +Gesellschaft+Sozialleben+gute Laune+Mitbewohner+Kontakte+Sprechen+Quatschen+Lachen+zusammen essen+gemeinsam kochen+die Gegenwart genießen+gesellig sein+Sozial Distance,;1;0
GI23ON;26.939525;Mölauzegt;neu;21;Control;GI23ON_Mölauzegt;Bescheidenheit+nicht ehrlich sein+Freunde +Bekannte+wissen was man will+Ablehnung+Angebote nutzen+dankbar sein,;0;1
GI23ON;33.94133;Ferandsor;neu;29;Control;GI23ON_Ferandsor;Reaktion+Unwohlsein+Hinterfragen+analysieren+Gefühle+Reize+Ursachen finden,;1;1
GI23ON;46.165725;Wumeizauch;emo;10;Control;GI23ON_Wumeizauch;Ungeduld+Neugierde+anstrengend+immer wieder zum Fenster+Partner+Unruhe+sich verrückt machen +andere verrückt machen,;1;1
GI23ON;67.88072;Faube;neu;26;Control;GI23ON_Faube;Nachbarn+Postbote+aufgeregt sein+komisches Gefühl+Unruhe+Stille+etwas vorspielen+ungutes Gefühl+sich verstecken+Konfrontation,;1;0
GI23ON;74.052365;Muschürdur;emo;6;Control;GI23ON_Muschürdur;Worte finden+üben+Reaktionen andere abschätzen+flüssig sprechen+Arzttermin+wichtige Gespräche+Details nicht vergessen +Vorbereitung+Perfektionismus,;1;1
Ad12Gh;43.345;Zwelde;emo;3;Imagery;Ad12Gh_Zwelde;Hinderniss+beseitigen+Rückschlag+Beharrlichkeit+Recherche,;1;1
Ad12Gh;65.825;Bisknirgo;emo;28;Imagery;Ad12Gh_Bisknirgo;Passion+Energie+angeblicher Altruismus +aufwändig+Freude+Erfüllung+Glück ,;1;0
Ad12Gh;51.564;Bingsemöl;neu;22;Imagery;Ad12Gh_Bingsemöl;Herabwürdigende Personen+unangenehm+Kommunikation notwendig+Arrogant+gedemütigt+verärgernd,;1;1
